Session:,Subject:,Trials.Sample:,First:,Second:,Third:,Fourth:,DigitSpan:,Fifth:,Sixth:,Seventh:,Eighth:,KeyPress1RT:,KeyPress1RESP:,KeyPress2RT:,KeyPress2RESP:,KeyPress3RT:,KeyPress3RESP:,KeyPress4RT:,KeyPress4RESP:,KeyPress5RT:,KeyPress5RESP:,KeyPress6RT:,KeyPress6RESP:,KeyPress7RT:,KeyPress7RESP:,KeyPress8RT:,KeyPress8RESP:
10,10,1,4,7,5,9,4,?,?,?,?,866,4,1146,7,1569,5,1841,9,2217,{ENTER},
10,10,2,3,5,7,4,5,9,?,?,?,1369,3,1617,5,1873,7,2137,4,2385,9,2961,{ENTER},
10,10,3,5,8,3,6,6,4,1,?,?,635,5,875,8,1171,3,1419,6,1699,4,1939,1,3203,{ENTER},
10,10,4,2,6,5,4,7,8,1,7,?,1891,2,2075,6,2283,5,2499,4,2739,8,4123,1,4395,7,7043,{ENTER},
10,10,5,8,1,3,4,8,5,2,7,9,1608,8,2016,1,2400,2,2824,7,6800,5,9152,2,9872,9,10376,{ENTER},
10,10,6,2,6,5,8,4,?,?,?,?,1709,2,1965,6,2173,5,2405,8,3157,{ENTER},
10,10,7,2,8,6,1,5,9,?,?,?,918,2,1166,8,1422,6,1718,1,1958,9,3406,{ENTER},
10,10,8,1,2,4,3,6,8,5,?,?,1474,1,1698,2,2426,4,2754,3,3058,8,3314,5,4818,{ENTER},
10,10,9,6,8,5,1,7,9,3,4,?,1219,3,1555,6,2611,5,2939,1,3291,8,4299,9,4643,4,5299,{ENTER},
10,10,10,7,8,5,6,8,4,1,9,3,852,5,1076,6,2044,7,2604,8,2876,4,3220,1,3460,9,3844,3,4883,{ENTER},
10,10,11,8,1,9,4,4,?,?,?,?,1215,8,1479,1,1791,9,2023,4,2567,{ENTER},
10,10,12,7,2,8,9,5,5,?,?,?,1466,7,1978,2,2266,8,2538,9,2802,5,3498,{ENTER},
10,10,13,6,9,3,4,6,8,1,?,?,873,6,1113,9,1489,3,1833,4,2089,8,2377,1,3753,{ENTER},
10,10,14,9,2,5,8,7,6,1,3,?,1086,9,1398,2,1662,5,1910,8,2294,6,2654,1,3262,3,5646,{ENTER},
10,10,15,3,6,7,9,8,5,4,1,8,671,3,927,6,1607,7,2455,9,4623,5,5383,4,8007,1,8143,8,8583,{ENTER},
10,11,1,4,7,5,9,4,?,?,?,?,1590,4,2342,7,2614,5,3030,9,4214,{ENTER},
10,11,2,3,5,7,4,5,9,?,?,?,153,3,1001,5,1593,7,2105,4,2713,9,3913,{ENTER},
10,11,3,5,8,3,6,6,4,1,?,?,3077,3,4333,5,5093,7,5829,4,6165,1,7077,{ENTER},
10,11,4,2,6,5,4,7,8,1,7,?,942,2,1902,6,2758,5,3070,4,6958,1,7526,8,8078,{ENTER},
10,11,5,8,1,3,4,8,5,2,7,9,1162,8,1570,1,1938,3,2874,5,3346,4,4538,2,5058,7,5434,9,5922,{ENTER},
10,11,6,2,6,5,8,4,?,?,?,?,1743,2,2502,6,2702,5,3046,8,3582,{ENTER},
10,11,7,2,8,6,1,5,9,?,?,?,1023,2,1671,8,2087,1,2823,6,3255,9,4063,{ENTER},
10,11,8,1,2,4,3,6,8,5,?,?,295,1,559,2,1087,4,2575,8,4278,5,5190,{ENTER},
10,11,9,6,8,5,1,7,9,3,4,?,803,6,2219,8,2683,1,3307,9,3771,3,4043,4,4875,{ENTER},
10,11,10,7,8,5,6,8,4,1,9,3,492,6,1124,8,3060,1,3636,9,4700,4,4900,5,5164,3,6156,7,7004,{ENTER},
10,11,11,8,1,9,4,4,?,?,?,?,1109,8,1493,1,2205,9,2501,4,3077,{ENTER},
10,11,12,7,2,8,9,5,5,?,?,?,1051,7,1419,2,1995,8,2155,9,2467,5,3035,{ENTER},
10,11,13,6,9,3,4,6,8,1,?,?,1084,6,1524,9,1828,8,2332,3,2636,4,3060,1,3876,{ENTER},
10,11,14,9,2,5,8,7,6,1,3,?,1403,9,1883,2,2667,8,3035,5,3235,6,3675,1,3923,3,4507,{ENTER},
10,11,15,3,6,7,9,8,5,4,1,8,1541,3,2037,6,2301,7,2725,9,3085,8,4541,1,5501,3,5709,4,6613,{ENTER},
10,4,1,4,7,5,9,4,?,?,?,?,1193,4,1457,7,1841,5,2121,9,2561,{ENTER},
10,4,2,3,5,7,4,5,9,?,?,?,84,3,220,5,796,7,1036,4,1180,9,1476,{ENTER},
10,4,3,5,8,3,6,6,4,1,?,?,510,5,798,8,1078,3,1358,6,1758,4,2070,1,2286,{ENTER},
10,4,4,2,6,5,4,7,8,1,7,?,425,2,625,6,1425,5,1553,4,1745,8,2049,1,2329,7,2681,{ENTER},
10,4,5,8,1,3,4,8,5,2,7,9,906,8,1306,1,1722,3,2370,4,2498,5,2858,2,3354,7,3354,4,6810,{ENTER},
10,4,6,2,6,5,8,4,?,?,?,?,639,2,847,6,1023,5,1215,8,1447,{ENTER},
10,4,7,2,8,6,1,5,9,?,?,?,127,2,487,8,799,6,1031,1,1287,9,1623,{ENTER},
10,4,8,1,2,4,3,6,8,5,?,?,337,1,417,2,737,4,881,3,1129,8,1393,5,1577,{ENTER},
10,4,9,6,8,5,1,7,9,3,4,?,237,6,893,8,1125,5,1261,1,1677,9,1997,3,2221,4,2493,{ENTER},
10,4,10,7,8,5,6,8,4,1,9,3,349,7,405,8,717,5,805,6,1093,4,1277,1,1605,9,1941,3,2349,{ENTER},
10,4,11,8,1,9,4,4,?,?,?,?,471,8,631,1,831,9,983,4,1199,{ENTER},
10,4,12,7,2,8,9,5,5,?,?,?,424,7,712,2,984,8,1152,9,1336,5,1560,{ENTER},
10,4,13,6,9,3,4,6,8,1,?,?,417,6,617,9,865,3,1049,4,1185,8,1393,1,1393,4,3921,{ENTER},
10,4,14,9,2,5,8,7,6,1,3,?,720,9,1016,2,1232,5,1384,8,1656,6,1832,1,1984,3,2296,{ENTER},
10,4,15,3,6,7,9,8,5,4,1,8,882,3,1473,6,1857,7,3353,9,3737,5,4281,1,4481,4,4585,8,4873,{ENTER},
10,5,1,4,7,5,9,4,?,?,?,?,932,4,1476,7,2652,5,3228,9,3876,{ENTER},
10,5,2,3,5,7,4,5,9,?,?,?,331,5,755,7,1027,4,1347,9,2347,{ENTER},
10,5,3,5,8,3,6,6,4,1,?,?,447,5,1271,8,1935,3,2735,6,3447,4,4159,7,4855,1,5567,{ENTER},
10,5,4,2,6,5,4,7,8,1,7,?,886,2,1509,6,2141,5,2453,4,3133,8,3629,1,4133,7,4821,{ENTER},
10,5,5,8,1,3,4,8,5,2,7,9,1121,8,1737,5,2769,2,3025,1,3513,8,3857,7,4241,9,4929,{ENTER},
10,5,6,2,6,5,8,4,?,?,?,?,1443,2,2331,6,3131,5,3995,8,4803,{ENTER},
10,5,7,2,8,6,1,5,9,?,?,?,1147,2,2091,8,2659,6,3155,1,3675,9,4427,{ENTER},
10,5,8,1,2,4,3,6,8,5,?,?,917,1,1525,4,4357,3,5181,8,5685,4,6829,5,7557,{ENTER},
10,5,9,6,8,5,1,7,9,3,4,?,946,6,1546,8,3242,1,3706,9,4450,5,5210,3,5410,4,6162,{ENTER},
10,5,10,7,8,5,6,8,4,1,9,3,948,7,1156,8,1796,6,2452,4,3316,9,3996,8,4420,1,6924,{ENTER},
10,5,11,8,1,9,4,4,?,?,?,?,1791,8,4206,3,4542,1,4958,9,5486,4,6318,{ENTER},
10,5,12,7,2,8,9,5,5,?,?,?,387,7,771,8,1571,2,3195,8,4259,9,4747,5,5515,{ENTER},
10,5,13,6,9,3,4,6,8,1,?,?,720,6,1720,5,2008,4,2960,3,3368,9,3584,8,4024,1,4496,{ENTER},
10,5,14,9,2,5,8,7,6,1,3,?,1090,5,1842,8,2826,6,3242,2,3242,1,4842,9,5250,3,5690,{ENTER},
10,5,15,3,6,7,9,8,5,4,1,8,1523,3,2643,6,3187,8,4203,5,4587,4,5091,1,5547,8,6347,{ENTER},
10,6,1,4,7,5,9,4,?,?,?,?,1542,4,2086,7,2670,5,3174,9,3654,{ENTER},
10,6,2,3,5,7,4,5,9,?,?,?,1525,3,1957,5,2405,7,2837,4,3300,9,4868,{ENTER},
10,6,3,5,8,3,6,6,4,1,?,?,1739,5,2155,8,2843,3,3267,6,3723,4,4115,1,4859,{ENTER},
10,6,4,2,6,5,4,7,8,1,7,?,2093,2,2469,6,2885,5,4005,4,5429,8,5965,1,6397,7,7669,{ENTER},
10,6,5,8,1,3,4,8,5,2,7,9,2286,8,2774,4,3542,3,4014,2,6422,5,6902,1,7438,7,7925,9,10661,{ENTER},
10,6,6,2,6,5,8,4,?,?,?,?,3289,2,3665,6,4017,5,4353,8,5089,{ENTER},
10,6,7,2,8,6,1,5,9,?,?,?,1311,2,1831,8,2407,6,2855,1,3407,9,4758,{ENTER},
10,6,8,1,2,4,3,6,8,5,?,?,1029,1,1317,2,1669,4,2181,3,2645,8,2997,5,3621,{ENTER},
10,6,9,6,8,5,1,7,9,3,4,?,1719,6,2471,8,2863,5,3255,1,3719,9,4159,3,4535,4,5047,{ENTER},
10,6,10,7,8,5,6,8,4,1,9,3,930,7,1362,8,1722,5,2058,6,2426,4,2786,1,3186,9,3698,3,4186,{ENTER},
10,6,11,8,1,9,4,4,?,?,?,?,1164,8,1612,1,2036,9,2364,4,2804,{ENTER},
10,6,12,7,2,8,9,5,5,?,?,?,957,7,1381,2,1829,8,2133,9,2437,5,2893,{ENTER},
10,6,13,6,9,3,4,6,8,1,?,?,1692,6,2075,5,2531,3,2971,4,3323,8,3747,1,4219,{ENTER},
10,6,14,9,2,5,8,7,6,1,3,?,1528,9,2152,8,2504,5,3088,2,3536,6,3896,1,4264,3,5864,{ENTER},
10,6,15,3,6,7,9,8,5,4,1,8,907,3,1243,6,1739,7,3531,9,3875,5,4227,4,4531,1,4827,8,5467,{ENTER},
10,8,1,4,7,5,9,4,?,?,?,?,1479,4,1775,7,2095,5,2391,9,3239,{ENTER},
10,8,2,3,5,7,4,5,9,?,?,?,1678,3,2070,5,2422,7,2742,4,3110,9,4142,{ENTER},
10,8,3,5,8,3,6,6,4,1,?,?,1511,5,1839,8,2263,3,2567,6,2887,4,3143,1,4031,{ENTER},
10,8,4,2,6,5,4,7,8,1,7,?,1323,2,1635,6,1963,5,2299,4,2619,8,2995,1,3299,7,4219,{ENTER},
10,8,5,8,1,3,4,8,5,2,7,9,2424,8,3440,1,4952,4,5352,5,5704,2,6072,7,6344,9,7576,{ENTER},
10,8,6,2,6,5,8,4,?,?,?,?,1762,2,2066,6,2698,5,2978,8,3938,{ENTER},
10,8,7,2,8,6,1,5,9,?,?,?,2932,2,3452,6,3860,8,4172,1,4524,9,5172,{ENTER},
10,8,8,1,2,4,3,6,8,5,?,?,2248,1,2928,2,3896,4,4448,3,4912,8,5240,5,6104,{ENTER},
10,8,9,6,8,5,1,7,9,3,4,?,1631,2,2007,6,2399,8,2719,1,3167,9,4807,3,5199,4,5687,{ENTER},
10,8,10,7,8,5,6,8,4,1,9,3,1813,7,2485,8,4309,9,8940,4,9636,1,9988,9,10244,3,10924,{ENTER},
10,8,11,8,1,9,4,4,?,?,?,?,1161,8,1433,1,1745,9,2017,4,2433,{ENTER},
10,8,12,7,2,8,9,5,5,?,?,?,1496,7,2104,2,2752,8,3055,9,3303,5,3807,{ENTER},
10,8,13,6,9,3,4,6,8,1,?,?,1462,6,2126,9,2862,3,3462,4,3926,8,4342,1,5478,{ENTER},
10,8,14,9,2,5,8,7,6,1,3,?,4062,9,4534,8,5134,6,5430,1,5686,3,6398,{ENTER},
10,8,15,3,6,7,9,8,5,4,1,8,1330,3,2178,6,2666,7,3282,9,3746,4,4138,1,4514,5,4834,8,5578,{ENTER},
10,9,1,4,7,5,9,4,?,?,?,?,1305,4,1849,7,2329,5,2865,9,3713,{ENTER},
10,9,2,3,5,7,4,5,9,?,?,?,1374,3,1846,5,2246,7,3070,4,3518,9,7038,{ENTER},
10,9,3,5,8,3,6,6,4,1,?,?,735,5,1215,8,2271,3,3335,6,3871,4,4191,1,6583,{ENTER},
10,9,4,2,6,5,4,7,8,1,7,?,1028,2,3108,4,5588,6,6268,8,6900,1,8732,2,9060,7,10020,{ENTER},
10,9,5,8,1,3,4,8,5,2,7,9,2199,8,12030,1,14094,4,14502,5,15126,7,15566,9,16238,{ENTER},
10,9,6,2,6,5,8,4,?,?,?,?,1416,2,1824,6,2424,5,3840,8,5024,{ENTER},
10,9,7,2,8,6,1,5,9,?,?,?,925,2,2205,8,2701,6,3245,1,3717,9,4381,{ENTER},
10,9,8,1,2,4,3,6,8,5,?,?,674,1,914,2,1458,4,7322,8,7954,5,8794,{ENTER},
10,9,9,6,8,5,1,7,9,3,4,?,838,6,1094,8,1678,5,2206,1,2806,3,3686,4,4366,{ENTER},
10,9,10,7,8,5,6,8,4,1,9,3,708,7,923,8,1835,5,2387,6,3267,3,8099,4,9635,3,10339,{ENTER},
10,9,11,8,1,9,4,4,?,?,?,?,913,8,1425,1,1953,9,2393,4,3065,{ENTER},
10,9,12,7,2,8,9,5,5,?,?,?,623,7,1015,2,1423,8,1655,9,2159,5,2647,{ENTER},
10,9,13,6,9,3,4,6,8,1,?,?,1325,6,1677,9,8125,8,8701,4,9053,1,9781,{ENTER},
10,9,14,9,2,5,8,7,6,1,3,?,580,9,1204,2,2596,5,2956,8,3388,6,3900,1,4188,3,4876,{ENTER},
10,9,15,3,6,7,9,8,5,4,1,8,656,3,1240,6,1744,7,2120,5,2664,9,3800,4,4431,8,5047,{ENTER},
1,10,1,4,7,5,9,4,?,?,?,?,1325,4,1717,7,2165,5,2541,9,3093,{ENTER},
1,10,2,3,5,7,4,5,9,?,?,?,1097,3,1537,5,1985,7,2361,4,2729,9,3417,{ENTER},
1,10,3,5,8,3,6,6,4,1,?,?,558,5,1094,8,3454,6,4014,3,4526,4,4942,1,5926,{ENTER},
1,10,4,2,6,5,4,7,8,1,7,?,1559,5,2159,6,2903,2,3839,4,4311,8,5039,1,5519,7,6359,{ENTER},
1,10,5,8,1,3,4,8,5,2,7,9,1174,1,5846,4,6814,5,12534,7,13478,2,13950,9,14438,{ENTER},
1,10,6,2,6,5,8,4,?,?,?,?,1135,2,1519,6,1791,5,2079,8,3127,{ENTER},
1,10,7,2,8,6,1,5,9,?,?,?,1219,2,1715,1,3315,8,3843,6,4307,1,4619,9,5107,{ENTER},
1,10,8,1,2,4,3,6,8,5,?,?,2065,1,2865,2,3433,4,3993,3,4481,8,4857,5,5393,{ENTER},
1,10,9,6,8,5,1,7,9,3,4,?,660,6,1244,8,3964,5,4460,1,5036,9,5516,3,5924,4,6420,{ENTER},
1,10,10,7,8,5,6,8,4,1,9,3,1053,7,1581,8,2613,5,3109,6,4469,1,4917,9,5317,3,6045,{ENTER},
1,10,11,8,1,9,4,4,?,?,?,?,1005,8,1165,1,1437,9,1629,4,2077,{ENTER},
1,10,12,7,2,8,9,5,5,?,?,?,840,7,1080,2,1456,8,1680,9,1928,5,2584,{ENTER},
1,10,13,6,9,3,4,6,8,1,?,?,1289,6,1737,9,3361,3,3849,4,4345,8,4761,1,5257,{ENTER},
1,10,14,9,2,5,8,7,6,1,3,?,1637,9,3741,2,4317,5,5461,8,5837,6,6517,1,7828,3,9364,{ENTER},
1,10,15,3,6,7,9,8,5,4,1,8,1196,3,2148,6,4436,7,5212,9,6364,5,7300,4,9012,1,9548,8,10156,{ENTER},
11,10,1,4,7,5,9,4,?,?,?,?,549,4,725,7,965,5,1165,9,1397,{ENTER},
11,10,2,3,5,7,4,5,9,?,?,?,141,7,341,4,581,9,7189,9,7461,{ENTER},
11,10,3,5,8,3,6,6,4,1,?,?,210,5,730,8,1306,3,1610,6,10306,4,10458,1,10698,{ENTER},
11,10,4,2,6,5,4,7,8,1,7,?,684,2,1476,6,1764,5,2004,4,2276,8,3412,1,3692,7,4308,{ENTER},
11,10,5,8,1,3,4,8,5,2,7,9,892,8,1316,1,1836,3,2116,5,3652,4,9611,2,9987,7,10731,9,10947,{ENTER},
11,10,6,2,6,5,8,4,?,?,?,?,1816,2,2040,6,2328,5,2552,8,2840,{ENTER},
11,10,7,2,8,6,1,5,9,?,?,?,376,2,680,8,976,6,1296,1,1608,9,2040,{ENTER},
11,10,8,1,2,4,3,6,8,5,?,?,1295,1,1511,2,1743,4,1983,3,2791,8,2975,5,3175,{ENTER},
11,10,9,6,8,5,1,7,9,3,4,?,1268,6,1516,8,4076,1,4276,5,4484,3,4772,4,5636,9,5892,{ENTER},
11,10,10,7,8,5,6,8,4,1,9,3,357,7,653,8,1821,5,2053,6,2325,4,2661,1,3013,9,3301,3,3541,{ENTER},
11,10,11,8,1,9,4,4,?,?,?,?,978,8,1298,1,1706,9,2066,4,2554,{ENTER},
11,10,12,7,2,8,9,5,5,?,?,?,478,7,926,2,1270,8,1510,9,1750,5,2270,{ENTER},
11,10,13,6,9,3,4,6,8,1,?,?,678,6,910,9,1182,3,1494,4,1742,8,2438,1,2710,{ENTER},
11,10,14,9,2,5,8,7,6,1,3,?,1797,9,2677,2,2949,5,3189,8,5061,1,5285,6,5493,3,5677,{ENTER},
11,10,15,3,6,7,9,8,5,4,1,8,567,3,799,6,1031,5,1231,7,1463,9,5647,4,5847,1,6087,8,6639,{ENTER},
11,11,1,4,7,5,9,4,?,?,?,?,557,4,853,7,1645,5,1901,1,2325,{ENTER},
11,11,2,3,5,7,4,5,9,?,?,?,271,5,615,7,951,4,1231,1,1671,{ENTER},
11,11,3,5,8,3,6,6,4,1,?,?,41,5,361,8,1241,3,1641,6,2153,4,2465,1,2857,{ENTER},
11,11,4,2,6,5,4,7,8,1,7,?,638,2,966,6,2790,4,3334,5,3854,8,4278,7,6406,{ENTER},
11,11,5,8,1,3,4,8,5,2,7,9,209,8,2601,4,3081,3,3625,1,3969,5,4289,2,6993,7,7593,{ENTER},
11,11,6,2,6,5,8,4,?,?,?,?,818,2,1082,6,1258,5,1506,8,1866,{ENTER},
11,11,7,2,8,6,1,5,9,?,?,?,263,2,1102,8,1590,6,4390,9,4758,1,5142,{ENTER},
11,11,8,1,2,4,3,6,8,5,?,?,168,1,456,2,720,4,1096,3,1608,8,1840,5,2216,{ENTER},
11,11,9,6,8,5,1,7,9,3,4,?,2290,6,3337,8,6457,5,7041,1,8585,3,9353,4,9849,{ENTER},
11,11,10,7,8,5,6,8,4,1,9,3,611,7,971,8,1619,6,2235,5,3347,4,5179,3,5467,9,5843,{ENTER},
11,11,11,8,1,9,4,4,?,?,?,?,667,8,1003,1,1275,9,1443,4,1883,{ENTER},
11,11,12,7,2,8,9,5,5,?,?,?,342,7,654,2,950,8,1982,9,2886,5,3254,{ENTER},
11,11,13,6,9,3,4,6,8,1,?,?,422,6,694,9,1390,3,2190,8,2526,1,2918,{ENTER},
11,11,14,9,2,5,8,7,6,1,3,?,1088,9,2008,2,2584,8,3152,5,3696,6,4216,3,4816,{ENTER},
11,11,15,3,6,7,9,8,5,4,1,8,524,8,788,6,4732,4,5339,5,5747,9,5971,8,6331,{ENTER},
1,11,1,4,7,5,9,4,?,?,?,?,3127,4,3839,7,4471,5,4751,9,15543,{ENTER},
1,11,2,3,5,7,4,5,9,?,?,?,2348,3,4372,5,6452,7,7996,4,9044,9,9684,{ENTER},
1,11,3,5,8,3,6,6,4,1,?,?,2626,5,4442,8,7282,7,8594,6,9490,4,9778,1,10570,{ENTER},
1,11,4,2,6,5,4,7,8,1,7,?,5342,2,6966,6,7998,5,9262,4,10046,8,10422,7,11046,1,11822,{ENTER},
1,11,5,8,1,3,4,8,5,2,7,9,892,8,1316,1,1604,4,2372,3,5612,5,6004,7,6148,9,8092,{ENTER},
1,11,6,2,6,5,8,4,?,?,?,?,3576,2,3816,6,4144,5,5608,8,6248,{ENTER},
1,11,7,2,8,6,1,5,9,?,?,?,840,2,1575,8,3631,6,4183,1,4439,9,5407,{ENTER},
1,11,8,1,2,4,3,6,8,5,?,?,1747,1,1979,2,2299,4,4003,8,4251,5,5627,{ENTER},
1,11,9,6,8,5,1,7,9,3,4,?,1140,6,1468,8,1764,5,2092,1,2372,9,4836,4,5644,{ENTER},
1,11,10,7,8,5,6,8,4,1,9,3,1656,7,1912,8,2856,5,3152,6,6656,1,7448,9,7712,3,8736,{ENTER},
1,11,11,8,1,9,4,4,?,?,?,?,2338,8,2626,1,2930,9,3210,4,3570,{ENTER},
1,11,12,7,2,8,9,5,5,?,?,?,3198,7,4038,2,4414,8,4782,9,5086,5,5958,{ENTER},
1,11,13,6,9,3,4,6,8,1,?,?,2209,6,3105,9,6673,8,6937,4,7201,1,11673,{ENTER},
1,11,14,9,2,5,8,7,6,1,3,?,2283,9,2643,2,3619,5,4203,8,4667,1,5035,3,6179,{ENTER},
1,11,15,3,6,7,9,8,5,4,1,8,1153,3,1585,6,2153,7,2601,5,3145,9,6481,4,9409,7,9649,8,10217,{ENTER},
11,3,1,4,7,5,9,4,?,?,?,?,1873,4,2225,7,2609,5,2953,9,3737,{ENTER},
11,3,2,3,5,7,4,5,9,?,?,?,870,3,1134,5,1574,7,1902,4,2150,9,2998,{ENTER},
11,3,3,5,8,3,6,6,4,1,?,?,732,5,1219,8,2204,3,2483,6,2795,4,3355,1,3763,{ENTER},
11,3,4,2,6,5,4,7,8,1,7,?,729,2,1065,6,1321,5,1553,4,2153,8,2409,1,2641,7,3153,{ENTER},
11,3,5,8,1,3,4,8,5,2,7,9,648,8,880,1,1088,3,1296,4,1496,5,1760,2,2736,7,3224,9,5320,{ENTER},
11,3,6,2,6,5,8,4,?,?,?,?,1474,2,1650,6,1874,5,2706,8,3194,{ENTER},
11,3,7,2,8,6,1,5,9,?,?,?,339,2,1035,8,1771,6,1987,1,2235,9,3067,{ENTER},
11,3,8,1,2,4,3,6,8,5,?,?,1258,1,1442,2,1730,4,2218,3,2418,8,2826,5,4409,{ENTER},
11,3,9,6,8,5,1,7,9,3,4,?,285,6,485,8,693,1,1045,5,1781,9,2157,3,2309,4,2773,{ENTER},
11,3,10,7,8,5,6,8,4,1,9,3,167,7,263,8,983,5,1087,6,1671,4,2495,2,2919,9,3111,3,5607,{ENTER},
11,3,11,8,1,9,4,4,?,?,?,?,1023,8,1207,1,1431,9,2447,4,2775,{ENTER},
11,3,12,7,2,8,9,5,5,?,?,?,401,7,617,2,881,8,1385,9,1905,5,2097,{ENTER},
11,3,13,6,9,3,4,6,8,1,?,?,735,6,1215,9,1863,3,2079,4,2295,8,2535,1,2903,{ENTER},
11,3,14,9,2,5,8,7,6,1,3,?,1140,9,1340,2,1660,5,1932,6,2492,8,2812,1,3020,3,3508,{ENTER},
11,3,15,3,6,7,9,8,5,4,1,8,406,3,1798,6,2094,7,2638,9,3414,4,4046,1,4398,8,4870,{ENTER},
11,4,1,4,7,5,9,4,?,?,?,?,1389,4,2077,7,2621,5,3157,9,3477,{ENTER},
11,4,2,3,5,7,4,5,9,?,?,?,1458,3,1682,5,2410,7,2818,4,3322,9,3690,{ENTER},
11,4,3,5,8,3,6,6,4,1,?,?,2363,5,2931,8,3771,6,4419,3,4691,4,4971,1,5459,{ENTER},
11,4,4,2,6,5,4,7,8,1,7,?,1725,2,2437,6,3917,5,4949,4,5533,8,5997,1,7053,7,7893,{ENTER},
11,4,5,8,1,3,4,8,5,2,7,9,3729,8,4257,1,4785,3,5073,4,5577,5,6017,2,6681,7,6993,9,9185,{ENTER},
11,4,6,2,6,5,8,4,?,?,?,?,1265,2,1937,6,2209,5,2737,8,3049,{ENTER},
11,4,7,2,8,6,1,5,9,?,?,?,879,2,1503,8,2319,6,2695,1,3303,9,3727,{ENTER},
11,4,8,1,2,4,3,6,8,5,?,?,1498,1,1762,2,2282,4,2562,3,3650,8,4122,5,4570,{ENTER},
11,4,9,6,8,5,1,7,9,3,4,?,1556,6,2308,8,2740,1,3588,5,4220,9,4652,3,4844,4,5260,{ENTER},
11,4,10,7,8,5,6,8,4,1,9,3,1446,7,1830,8,2494,5,2774,6,3542,4,3910,1,4462,9,4966,3,5462,{ENTER},
11,4,11,8,1,9,4,4,?,?,?,?,1301,8,1757,1,2317,9,2813,4,3301,{ENTER},
11,4,12,7,2,8,9,5,5,?,?,?,1026,7,1547,2,2658,8,2874,9,3354,5,4426,{ENTER},
11,4,13,6,9,3,4,6,8,1,?,?,1940,6,2780,9,3828,4,4332,3,4908,8,5412,1,6020,{ENTER},
11,4,14,9,2,5,8,7,6,1,3,?,1967,9,2783,8,3383,5,3959,2,4767,6,5295,1,5631,3,6063,{ENTER},
11,4,15,3,6,7,9,8,5,4,1,8,1024,3,1664,6,2296,7,2728,9,3472,4,4088,5,4536,1,5016,8,5320,{ENTER},
11,5,1,4,7,5,9,4,?,?,?,?,2572,4,3204,7,4900,5,5516,9,6372,{ENTER},
11,5,2,3,5,7,4,5,9,?,?,?,1456,3,1872,4,4040,7,7336,9,8088,{ENTER},
11,5,3,5,8,3,6,6,4,1,?,?,2087,5,2599,8,3767,3,5487,6,6487,4,6791,1,7575,{ENTER},
11,5,4,2,6,5,4,7,8,1,7,?,1835,2,2779,6,3835,5,4475,4,5251,1,5851,8,6131,7,6867,{ENTER},
11,5,5,8,1,3,4,8,5,2,7,9,1125,8,1701,1,2821,2,3261,4,4205,8,4517,7,4925,9,6013,{ENTER},
11,5,6,2,6,5,8,4,?,?,?,?,1802,2,2378,6,3314,5,3618,8,4306,{ENTER},
11,5,7,2,8,6,1,5,9,?,?,?,1024,2,1720,8,3720,6,5400,1,6272,9,6912,{ENTER},
11,5,8,1,2,4,3,6,8,5,?,?,1135,1,1415,2,1831,4,2927,8,3391,5,4159,{ENTER},
11,5,9,6,8,5,1,7,9,3,4,?,1453,2,1981,6,3213,5,3565,1,4309,9,4917,3,5125,4,5661,{ENTER},
11,5,10,7,8,5,6,8,4,1,9,3,896,7,1896,8,2712,5,3080,6,3743,4,4255,1,4888,5,5552,3,6064,{ENTER},
11,5,11,8,1,9,4,4,?,?,?,?,1740,8,2324,1,3084,9,3556,4,4460,{ENTER},
11,5,12,7,2,8,9,5,5,?,?,?,1004,7,1524,2,2388,8,2628,9,3228,5,4564,{ENTER},
11,5,13,6,9,3,4,6,8,1,?,?,1567,6,1815,9,2607,3,2855,4,3287,8,3759,1,4823,{ENTER},
11,5,14,9,2,5,8,7,6,1,3,?,4967,6,5367,1,6055,9,6431,8,8799,3,11431,{ENTER},
11,5,15,3,6,7,9,8,5,4,1,8,783,3,1415,6,2191,5,2999,4,4015,1,4487,8,6335,{ENTER},
11,6,1,4,7,5,9,4,?,?,?,?,1180,4,1420,7,1724,5,1964,9,2860,{ENTER},
11,6,2,3,5,7,4,5,9,?,?,?,1890,3,2041,4,2794,7,3402,5,3730,9,4489,{ENTER},
11,6,3,5,8,3,6,6,4,1,?,?,3279,5,3575,8,4311,3,4607,6,5007,4,5279,1,7215,{ENTER},
11,6,4,2,6,5,4,7,8,1,7,?,1827,2,2283,6,2603,5,2755,4,3627,8,5587,5,5811,7,7083,{ENTER},
11,6,5,8,1,3,4,8,5,2,7,9,1230,8,1438,1,1878,3,2006,4,4110,5,4334,6,4958,7,5518,9,6238,{ENTER},
11,6,6,2,6,5,8,4,?,?,?,?,1774,2,2262,6,2606,5,2894,8,3702,{ENTER},
11,6,7,2,8,6,1,5,9,?,?,?,1188,2,1876,8,2692,6,2892,1,3356,9,4340,{ENTER},
11,6,8,1,2,4,3,6,8,5,?,?,2241,1,2529,2,2905,4,3369,3,3745,8,4129,5,6321,{ENTER},
11,6,9,6,8,5,1,7,9,3,4,?,1360,6,1912,8,2600,5,2840,1,3280,3,3584,9,4248,4,4792,{ENTER},
11,6,10,7,8,5,6,8,4,1,9,3,1030,7,1638,8,1982,6,2846,5,3078,4,3534,1,4350,9,5038,{ENTER},
11,6,11,8,1,9,4,4,?,?,?,?,1276,8,1540,1,2108,9,2668,4,2924,{ENTER},
11,6,12,7,2,8,9,5,5,?,?,?,1204,7,1812,2,2740,8,3212,9,3468,5,3868,{ENTER},
11,6,13,6,9,3,4,6,8,1,?,?,3275,6,3603,9,4107,3,5803,8,5947,4,6323,1,6843,{ENTER},
11,6,14,9,2,5,8,7,6,1,3,?,2877,9,3221,2,4021,5,5421,6,5717,8,6125,1,6765,5,7269,{ENTER},
11,6,15,3,6,7,9,8,5,4,1,8,1120,3,1608,6,1944,9,6080,7,6288,8,7784,4,8320,1,9032,{ENTER},
11,8,1,4,7,5,9,4,?,?,?,?,1848,4,2088,7,2424,5,2744,9,3264,{ENTER},
11,8,2,3,5,7,4,5,9,?,?,?,1435,3,2355,5,2723,7,3003,4,3259,9,3843,{ENTER},
11,8,3,5,8,3,6,6,4,1,?,?,3298,5,3650,6,4202,7,4778,3,5258,4,5482,1,6530,{ENTER},
11,8,4,2,6,5,4,7,8,1,7,?,2304,2,2552,6,2864,5,3456,8,4088,4,4360,7,4864,1,5720,{ENTER},
11,8,5,8,1,3,4,8,5,2,7,9,1713,8,1969,4,2201,5,2673,3,2945,2,3433,7,3833,9,4849,{ENTER},
11,8,6,2,6,5,8,4,?,?,?,?,2407,2,2711,6,3135,5,3351,8,3687,{ENTER},
11,8,7,2,8,6,1,5,9,?,?,?,1405,2,1917,8,2533,6,3037,1,3445,9,3877,{ENTER},
11,8,8,1,2,4,3,6,8,5,?,?,686,1,942,2,1158,3,1718,5,2038,8,2806,5,3222,{ENTER},
11,8,9,6,8,5,1,7,9,3,4,?,1392,6,2088,1,2512,9,3344,3,3912,8,4320,4,4936,{ENTER},
11,8,10,7,8,5,6,8,4,1,9,3,1751,7,2015,8,2391,4,2943,1,3943,9,4687,8,5071,6,5423,3,6207,{ENTER},
11,8,11,8,1,9,4,4,?,?,?,?,1664,8,2000,4,2448,1,2912,9,3488,4,4080,{ENTER},
11,8,12,7,2,8,9,5,5,?,?,?,262,7,854,2,1310,8,1478,9,2246,5,2646,{ENTER},
11,8,13,6,9,3,4,6,8,1,?,?,1326,6,1582,5,1766,4,2502,3,3070,8,3366,1,4014,{ENTER},
11,8,14,9,2,5,8,7,6,1,3,?,1632,9,2728,6,2984,5,3224,8,3968,2,5624,1,5992,3,6280,{ENTER},
11,8,15,3,6,7,9,8,5,4,1,8,1082,3,1402,6,1738,7,2106,9,2762,4,3170,8,3610,1,3890,{ENTER},
11,9,1,4,7,5,9,4,?,?,?,?,1528,4,1944,7,2392,5,2736,9,3848,{ENTER},
11,9,2,3,5,7,4,5,9,?,?,?,1427,3,2459,5,2931,7,3203,4,3651,9,5179,{ENTER},
11,9,3,5,8,3,6,6,4,1,?,?,2075,5,2491,8,3115,3,3547,6,3923,4,4171,1,5107,{ENTER},
11,9,4,2,6,5,4,7,8,1,7,?,2546,2,3658,6,4218,5,4850,4,5794,8,6602,1,7050,7,8106,{ENTER},
11,9,5,8,1,3,4,8,5,2,7,9,1530,8,2250,1,3498,3,4378,5,10825,8,11649,7,16153,2,16513,9,17273,{ENTER},
11,9,6,2,6,5,8,4,?,?,?,?,1418,2,1826,6,2122,5,2354,8,3554,{ENTER},
11,9,7,2,8,6,1,5,9,?,?,?,823,2,1255,8,1951,6,2367,1,2775,9,3607,{ENTER},
11,9,8,1,2,4,3,6,8,5,?,?,1591,1,1991,2,2567,4,3967,3,4423,8,4623,5,5311,{ENTER},
11,9,9,6,8,5,1,7,9,3,4,?,656,6,1040,8,1568,1,2064,5,2656,3,3320,4,5952,{ENTER},
11,9,10,7,8,5,6,8,4,1,9,3,647,7,1111,8,2159,5,2591,6,3071,4,3519,1,3975,9,4319,3,5735,{ENTER},
11,9,11,8,1,9,4,4,?,?,?,?,897,8,1337,1,1705,9,2001,4,3049,{ENTER},
11,9,12,7,2,8,9,5,5,?,?,?,935,7,1567,2,2047,8,2535,9,2863,5,3583,{ENTER},
11,9,13,6,9,3,4,6,8,1,?,?,1112,6,1520,9,1992,3,2760,4,3304,8,3728,1,5592,{ENTER},
11,9,14,9,2,5,8,7,6,1,3,?,1276,9,1668,2,2108,5,6452,8,7004,6,7380,1,7636,3,8788,{ENTER},
11,9,15,3,6,7,9,8,5,4,1,8,598,3,1278,6,1918,7,7814,1,14062,3,14942,7,15166,8,15838,{ENTER},
1,1,1,4,7,5,9,4,?,?,?,?,1657,4,1849,7,2361,5,2585,9,3313,{ENTER},
1,1,2,3,5,7,4,5,9,?,?,?,1495,3,1775,5,2055,7,2311,4,2655,9,3079,{ENTER},
1,1,3,5,8,3,6,6,4,1,?,?,1227,5,1659,8,2019,3,2603,6,2859,4,3107,1,4587,{ENTER},
1,1,4,2,6,5,4,7,8,1,7,?,1055,2,1255,6,2047,5,2351,4,2695,8,3007,7,3319,1,4703,{ENTER},
1,1,5,8,1,3,4,8,5,2,7,9,1167,8,1487,1,2351,3,2839,2,3743,5,4119,7,4231,9,5575,{ENTER},
1,1,6,2,6,5,8,4,?,?,?,?,1264,2,1848,6,3016,5,3600,8,4592,{ENTER},
1,1,7,2,8,6,1,5,9,?,?,?,1354,2,1770,8,2146,6,2362,1,3162,9,4354,{ENTER},
1,1,8,1,2,4,3,6,8,5,?,?,1292,1,1900,2,3012,4,3916,3,7124,8,7348,5,7988,{ENTER},
1,1,9,6,8,5,1,7,9,3,4,?,1149,2,1333,6,1749,8,1933,9,3981,5,4317,1,4541,4,5141,{ENTER},
1,1,10,7,8,5,6,8,4,1,9,3,1517,7,1669,8,2861,6,3685,5,4133,4,4357,1,4613,3,5269,{ENTER},
1,1,11,8,1,9,4,4,?,?,?,?,1548,8,1940,1,2332,9,2620,4,3140,{ENTER},
1,1,12,7,2,8,9,5,5,?,?,?,1304,7,1744,2,3839,8,4495,5,5463,{ENTER},
1,1,13,6,9,3,4,6,8,1,?,?,2544,6,2752,5,3408,3,3840,4,4208,8,4528,1,4960,{ENTER},
1,1,14,9,2,5,8,7,6,1,3,?,1761,9,2369,2,2825,5,3889,6,4625,8,5169,1,5481,3,7217,{ENTER},
1,1,15,3,6,7,9,8,5,4,1,8,917,3,1141,6,1597,7,2109,9,4661,5,4973,1,5189,8,6549,{ENTER},
12,10,1,4,7,5,9,4,?,?,?,?,201,4,409,7,625,5,809,9,1065,{ENTER},
12,10,2,3,5,7,4,5,9,?,?,?,24,3,248,5,440,7,632,4,848,9,1440,{ENTER},
12,10,3,5,8,3,6,6,4,1,?,?,416,5,640,8,888,3,1080,6,1328,4,1520,1,1720,{ENTER},
12,10,4,2,6,5,4,7,8,1,7,?,633,2,825,6,1025,4,1225,5,1401,8,1609,1,1817,7,3265,{ENTER},
12,10,5,8,1,3,4,8,5,2,7,9,1437,8,1957,5,2301,3,2605,1,3253,2,5037,4,5197,7,5413,9,5701,{ENTER},
12,10,6,2,6,5,8,4,?,?,?,?,716,2,908,6,1068,5,1236,8,1692,{ENTER},
12,10,7,2,8,6,1,5,9,?,?,?,266,2,466,8,650,6,842,1,1034,9,1306,{ENTER},
12,10,8,1,2,4,3,6,8,5,?,?,568,1,752,2,928,4,1152,3,1344,8,1520,5,1760,{ENTER},
12,10,9,6,8,5,1,7,9,3,4,?,901,6,1141,5,1349,8,1605,1,1845,9,2077,3,2348,4,2644,{ENTER},
12,10,10,7,8,5,6,8,4,1,9,3,160,6,336,4,512,1,624,9,1000,3,1240,{ENTER},
12,10,11,8,1,9,4,4,?,?,?,?,622,8,806,1,966,9,1118,4,1366,{ENTER},
12,10,12,7,2,8,9,5,5,?,?,?,72,7,296,2,520,8,680,9,848,5,1112,{ENTER},
12,10,13,6,9,3,4,6,8,1,?,?,571,6,715,9,907,3,1091,4,1235,8,1419,1,1635,{ENTER},
12,10,14,9,2,5,8,7,6,1,3,?,822,9,1190,2,1382,5,1534,8,1718,6,1870,1,2054,3,2246,{ENTER},
12,10,15,3,6,7,9,8,5,4,1,8,649,3,873,6,1129,9,2817,4,2985,8,3153,1,3361,{ENTER},
12,10,1,4,7,5,9,4,?,?,?,?,201,4,409,7,625,5,809,9,1065,{ENTER},
12,10,2,3,5,7,4,5,9,?,?,?,24,3,248,5,440,7,632,4,848,9,1440,{ENTER},
12,10,3,5,8,3,6,6,4,1,?,?,416,5,640,8,888,3,1080,6,1328,4,1520,1,1720,{ENTER},
12,10,4,2,6,5,4,7,8,1,7,?,633,2,825,6,1025,4,1225,5,1401,8,1609,1,1817,7,3265,{ENTER},
12,10,5,8,1,3,4,8,5,2,7,9,1437,8,1957,5,2301,3,2605,1,3253,2,5037,4,5197,7,5413,9,5701,{ENTER},
12,10,6,2,6,5,8,4,?,?,?,?,716,2,908,6,1068,5,1236,8,1692,{ENTER},
12,10,7,2,8,6,1,5,9,?,?,?,266,2,466,8,650,6,842,1,1034,9,1306,{ENTER},
12,10,8,1,2,4,3,6,8,5,?,?,568,1,752,2,928,4,1152,3,1344,8,1520,5,1760,{ENTER},
12,10,9,6,8,5,1,7,9,3,4,?,901,6,1141,5,1349,8,1605,1,1845,9,2077,3,2348,4,2644,{ENTER},
12,10,10,7,8,5,6,8,4,1,9,3,160,6,336,4,512,1,624,9,1000,3,1240,{ENTER},
12,10,11,8,1,9,4,4,?,?,?,?,622,8,806,1,966,9,1118,4,1366,{ENTER},
12,10,12,7,2,8,9,5,5,?,?,?,72,7,296,2,520,8,680,9,848,5,1112,{ENTER},
12,10,13,6,9,3,4,6,8,1,?,?,571,6,715,9,907,3,1091,4,1235,8,1419,1,1635,{ENTER},
12,10,14,9,2,5,8,7,6,1,3,?,822,9,1190,2,1382,5,1534,8,1718,6,1870,1,2054,3,2246,{ENTER},
12,10,15,3,6,7,9,8,5,4,1,8,649,3,873,6,1129,9,2817,4,2985,8,3153,1,3361,{ENTER},
12,3,1,4,7,5,9,4,?,?,?,?,1695,4,2287,7,2903,5,3343,9,3919,{ENTER},
12,3,2,3,5,7,4,5,9,?,?,?,1676,3,2524,5,3188,7,4756,4,5436,9,6788,{ENTER},
12,3,3,5,8,3,6,6,4,1,?,?,1719,5,3255,8,4183,3,5311,8,6319,4,6935,1,7903,{ENTER},
12,3,4,2,6,5,4,7,8,1,7,?,430,2,1454,6,2038,5,2614,4,3310,8,4446,1,4838,7,5862,{ENTER},
12,3,5,8,1,3,4,8,5,2,7,9,593,8,1377,1,2793,3,3321,4,4361,2,4857,7,5241,9,5929,{ENTER},
12,3,6,2,6,5,8,4,?,?,?,?,962,2,1410,6,1786,5,2114,8,2378,{ENTER},
12,3,7,2,8,6,1,5,9,?,?,?,1102,2,2870,8,3446,6,4430,1,4942,9,5814,{ENTER},
12,3,8,1,2,4,3,6,8,5,?,?,741,1,1533,2,2765,4,3541,3,4165,8,4701,5,5925,{ENTER},
12,3,9,6,8,5,1,7,9,3,4,?,660,6,1156,8,1876,5,4732,1,7068,9,8380,4,9292,{ENTER},
12,3,10,7,8,5,6,8,4,1,9,3,2398,7,2750,6,5622,4,6486,1,7102,9,7510,3,8758,{ENTER},
12,3,11,8,1,9,4,4,?,?,?,?,1029,8,1573,1,2037,9,2845,4,3685,{ENTER},
12,3,12,7,2,8,9,5,5,?,?,?,555,7,1315,2,2091,8,2691,9,3507,5,4307,{ENTER},
12,3,13,6,9,3,4,6,8,1,?,?,1680,6,2136,9,2608,3,3088,4,3520,8,3840,1,4176,{ENTER},
12,3,14,9,2,5,8,7,6,1,3,?,1475,9,2003,2,2619,8,3403,6,3883,5,5227,1,5427,3,5979,{ENTER},
12,3,15,3,6,7,9,8,5,4,1,8,1784,3,2568,6,2984,7,4400,9,5376,5,6688,4,8760,1,8928,8,9728,{ENTER},
12,5,1,4,7,5,9,4,?,?,?,?,730,4,1906,7,2298,5,2890,9,3586,{ENTER},
12,5,2,3,5,7,4,5,9,?,?,?,445,3,925,5,1645,7,2125,4,3149,9,3709,{ENTER},
12,5,3,5,8,3,6,6,4,1,?,?,1819,5,2083,8,2595,3,2931,6,3763,4,4219,1,4923,{ENTER},
12,5,4,2,6,5,4,7,8,1,7,?,1311,2,1783,6,2071,5,2439,4,2863,8,4135,1,4551,7,6207,{ENTER},
12,5,5,8,1,3,4,8,5,2,7,9,6526,8,9494,3,9838,1,10110,4,10710,5,11142,2,12022,9,12326,7,12982,{ENTER},
12,5,6,2,6,5,8,4,?,?,?,?,2009,2,2313,6,2601,5,2809,8,3633,{ENTER},
12,5,7,2,8,6,1,5,9,?,?,?,1489,2,1801,8,2137,6,2465,1,2681,9,3377,{ENTER},
12,5,8,1,2,4,3,6,8,5,?,?,5325,1,5581,2,5877,4,6245,3,6597,8,6893,5,7541,{ENTER},
12,5,9,6,8,5,1,7,9,3,4,?,1359,6,1663,8,1951,5,2255,1,2567,9,2975,3,3311,4,4295,{ENTER},
12,5,10,7,8,5,6,8,4,1,9,3,3321,7,4121,8,4529,6,4753,5,5161,4,6833,1,7201,9,7529,3,8049,{ENTER},
12,5,11,8,1,9,4,4,?,?,?,?,1114,8,1354,1,1610,9,2042,4,2818,{ENTER},
12,5,12,7,2,8,9,5,5,?,?,?,1001,7,1361,2,1617,8,1809,9,2033,5,2353,{ENTER},
12,5,13,6,9,3,4,6,8,1,?,?,1422,6,1734,9,3598,3,4422,4,4766,8,5022,1,5398,{ENTER},
12,5,14,9,2,5,8,7,6,1,3,?,963,9,1403,2,1683,5,2099,8,2491,6,2915,1,3123,3,3523,{ENTER},
12,5,15,3,6,7,9,8,5,4,1,8,2568,6,2912,3,3191,9,4568,2,5103,7,6167,4,6383,1,6567,8,6959,{ENTER},
12,6,1,4,7,5,9,4,?,?,?,?,266,4,602,7,978,5,1250,9,1874,{ENTER},
12,6,2,3,5,7,4,5,9,?,?,?,106,5,1530,3,2042,5,2458,7,2730,4,3034,9,3962,{ENTER},
12,6,3,5,8,3,6,6,4,1,?,?,734,5,1446,8,2054,3,2534,6,2966,4,3278,1,4510,{ENTER},
12,6,4,2,6,5,4,7,8,1,7,?,648,2,1808,6,2256,5,2712,4,3216,8,3616,1,4160,7,4832,{ENTER},
12,6,5,8,1,3,4,8,5,2,7,9,1077,8,1844,1,2940,3,4332,4,5028,5,5604,2,8364,7,8844,2,9284,9,10172,{ENTER},
12,6,6,2,6,5,8,4,?,?,?,?,1205,2,1613,6,1909,5,2373,8,3109,{ENTER},
12,6,7,2,8,6,1,5,9,?,?,?,1186,2,1890,8,2402,6,3314,1,3906,9,4490,{ENTER},
12,6,8,1,2,4,3,6,8,5,?,?,1289,1,1985,2,3393,4,4097,3,5081,8,5449,5,6049,{ENTER},
12,6,9,6,8,5,1,7,9,3,4,?,1132,6,1980,8,2748,5,3156,1,3868,9,4452,3,5004,4,5755,{ENTER},
12,6,10,7,8,5,6,8,4,1,9,3,389,7,861,8,1661,5,2045,6,2581,1,3029,4,3653,9,4101,3,4845,{ENTER},
12,6,11,8,1,9,4,4,?,?,?,?,827,8,1243,1,1851,9,2211,4,2635,{ENTER},
12,6,12,7,2,8,9,5,5,?,?,?,483,7,1067,2,1699,8,1979,9,2291,5,3003,{ENTER},
12,6,13,6,9,3,4,6,8,1,?,?,717,6,1109,9,1773,3,2589,4,2997,8,3341,1,4077,{ENTER},
12,6,14,9,2,5,8,7,6,1,3,?,526,9,1022,2,1846,5,2246,8,3046,6,3502,1,4406,3,5158,{ENTER},
12,6,15,3,6,7,9,8,5,4,1,8,140,3,916,6,3140,7,3508,9,4572,4,4764,5,5052,8,6708,{ENTER},
12,8,1,4,7,5,9,4,?,?,?,?,2026,4,2282,7,2522,5,2898,9,3466,{ENTER},
12,8,2,3,5,7,4,5,9,?,?,?,1009,3,1569,5,2385,7,3673,4,3905,9,4585,{ENTER},
12,8,3,5,8,3,6,6,4,1,?,?,1545,5,2385,8,2897,3,3529,4,3817,6,4137,1,5081,{ENTER},
12,8,4,2,6,5,4,7,8,1,7,?,2435,2,2787,5,3059,6,3547,3,6067,8,6507,6,6715,7,7043,{ENTER},
12,8,5,8,1,3,4,8,5,2,7,9,3408,8,4040,5,4760,4,6376,3,6720,7,7120,9,8808,{ENTER},
12,8,6,2,6,5,8,4,?,?,?,?,2156,2,2484,6,2812,5,3236,8,3572,{ENTER},
12,8,7,2,8,6,1,5,9,?,?,?,1870,2,2278,8,2886,6,3190,1,3582,9,3958,{ENTER},
12,8,8,1,2,4,3,6,8,5,?,?,1866,2,2074,1,3506,4,5210,3,5426,8,5706,5,5986,{ENTER},
12,8,9,6,8,5,1,7,9,3,4,?,1272,6,2232,8,2584,1,3416,9,4456,3,4656,4,5192,{ENTER},
12,8,10,7,8,5,6,8,4,1,9,3,1180,7,1420,8,2076,5,6380,8,6628,9,8404,3,8884,{ENTER},
12,8,11,8,1,9,4,4,?,?,?,?,1459,8,1627,1,2699,9,3235,4,3467,{ENTER},
12,8,12,7,2,8,9,5,5,?,?,?,1771,7,2243,2,3179,8,4171,9,4539,5,4851,{ENTER},
12,8,13,6,9,3,4,6,8,1,?,?,740,9,1164,8,1620,5,2492,6,3492,8,4196,1,4476,{ENTER},
12,8,14,9,2,5,8,7,6,1,3,?,1151,9,1527,2,1951,5,2783,8,3175,6,3711,1,4287,3,4719,{ENTER},
12,8,15,3,6,7,9,8,5,4,1,8,1119,3,1335,6,1519,7,2095,9,2823,4,3463,8,3839,{ENTER},
12,9,1,4,7,5,9,4,?,?,?,?,746,4,1186,7,1954,5,2322,9,2738,{ENTER},
12,9,2,3,5,7,4,5,9,?,?,?,685,3,1285,5,1693,7,2069,4,2549,9,3021,{ENTER},
12,9,3,5,8,3,6,6,4,1,?,?,534,5,958,8,1510,3,1982,6,2390,4,2790,1,3662,{ENTER},
12,9,4,2,6,5,4,7,8,1,7,?,639,2,1135,6,1367,5,1607,4,2359,8,2799,1,3215,7,3679,{ENTER},
12,9,5,8,1,3,4,8,5,2,7,9,850,8,1386,1,1938,3,2210,4,2450,5,3082,2,3498,7,3826,9,4386,{ENTER},
12,9,6,2,6,5,8,4,?,?,?,?,940,2,1348,6,1796,5,2108,8,2420,{ENTER},
12,9,7,2,8,6,1,5,9,?,?,?,925,2,1693,8,2621,6,3149,1,3613,9,4045,{ENTER},
12,9,8,1,2,4,3,6,8,5,?,?,3055,1,3310,2,3630,4,3926,3,4583,8,4918,5,5342,{ENTER},
12,9,9,6,8,5,1,7,9,3,4,?,943,1,3079,6,3599,8,4335,5,4799,9,5471,3,6111,1,6935,4,7375,{ENTER},
12,9,10,7,8,5,6,8,4,1,9,3,998,7,1366,6,1718,5,2566,8,3270,4,3774,9,4230,1,4494,3,4926,{ENTER},
12,9,11,8,1,9,4,4,?,?,?,?,1746,8,2458,1,2914,9,3362,4,3818,{ENTER},
12,9,12,7,2,8,9,5,5,?,?,?,587,7,1195,2,1939,8,2155,9,2771,5,3267,{ENTER},
12,9,13,6,9,3,4,6,8,1,?,?,1169,6,1577,9,2841,3,3153,5,3617,4,4193,8,4609,1,5097,{ENTER},
12,9,14,9,2,5,8,7,6,1,3,?,506,9,1602,8,2218,2,2602,5,3346,6,3986,1,4250,3,4954,{ENTER},
12,9,15,3,6,7,9,8,5,4,1,8,1138,3,1594,6,1914,7,2266,9,2690,5,3082,4,7354,1,8098,7,8298,8,8682,{ENTER},
1,2,1,4,7,5,9,4,?,?,?,?,1009,4,1257,7,1545,5,2017,9,2721,{ENTER},
1,2,2,3,5,7,4,5,9,?,?,?,2494,3,2782,5,3094,7,3358,4,3614,9,3926,{ENTER},
1,2,3,5,8,3,6,6,4,1,?,?,1187,5,1459,8,2003,3,2227,6,2499,4,2739,1,3011,{ENTER},
1,2,4,2,6,5,4,7,8,1,7,?,5414,2,5694,6,6414,5,6662,8,7382,4,7646,1,8286,7,9462,{ENTER},
1,2,5,8,1,3,4,8,5,2,7,9,9204,8,17795,4,18299,5,19187,3,20419,1,21355,7,22059,9,23339,{ENTER},
1,2,6,2,6,5,8,4,?,?,?,?,1285,2,1909,6,2461,5,2965,8,3365,{ENTER},
1,2,7,2,8,6,1,5,9,?,?,?,4144,2,4456,8,4752,6,5064,1,5336,9,5704,{ENTER},
1,2,8,1,2,4,3,6,8,5,?,?,1422,1,1901,2,2429,4,3189,3,3541,8,4205,5,4541,{ENTER},
1,2,9,6,8,5,1,7,9,3,4,?,21333,6,22501,8,24117,5,25837,3,26269,1,26637,9,27029,4,27461,{ENTER},
1,2,10,7,8,5,6,8,4,1,9,3,6094,6,6710,5,11558,6,11950,1,16046,8,16350,3,16606,9,16878,4,17470,{ENTER},
1,2,11,8,1,9,4,4,?,?,?,?,2032,8,2344,1,2688,9,2952,4,3248,{ENTER},
1,2,12,7,2,8,9,5,5,?,?,?,3495,7,3751,2,3999,8,4223,9,4503,5,4823,{ENTER},
1,2,13,6,9,3,4,6,8,1,?,?,2809,6,3057,9,3361,3,3625,8,3913,4,4129,1,4481,{ENTER},
1,2,14,9,2,5,8,7,6,1,3,?,1541,9,1821,2,2093,5,2357,8,2613,6,2861,1,3093,3,3357,{ENTER},
1,2,15,3,6,7,9,8,5,4,1,8,1267,3,1523,6,2347,7,2683,9,3083,5,10139,1,10355,8,10971,{ENTER},
13,10,1,4,7,5,9,4,?,?,?,?,643,4,1019,7,1331,5,1515,9,2155,{ENTER},
13,10,2,3,5,7,4,5,9,?,?,?,1030,3,1262,5,1494,7,1726,4,1942,9,2662,{ENTER},
13,10,3,5,8,3,6,6,4,1,?,?,1060,5,1341,8,1685,3,1925,6,2220,4,2428,1,3644,{ENTER},
13,10,4,2,6,5,4,7,8,1,7,?,670,2,942,6,1206,5,1470,4,1758,8,2414,1,2686,7,4326,{ENTER},
13,10,5,8,1,3,4,8,5,2,7,9,639,8,1047,1,1607,3,1999,5,2351,4,2631,1,3367,7,3623,9,5959,{ENTER},
13,10,6,2,6,5,8,4,?,?,?,?,473,2,705,6,921,5,1177,8,1641,{ENTER},
13,10,7,2,8,6,1,5,9,?,?,?,553,2,1009,8,1481,6,1865,1,2121,9,3137,{ENTER},
13,10,8,1,2,4,3,6,8,5,?,?,814,1,1030,2,1270,4,1510,3,1822,8,2086,5,3166,{ENTER},
13,10,9,6,8,5,1,7,9,3,4,?,1187,2,1563,8,1891,6,2234,1,2810,5,5050,4,6802,3,7122,9,7346,4,7986,{ENTER},
13,10,10,7,8,5,6,8,4,1,9,3,904,7,1152,8,1456,5,1760,6,2824,1,3496,4,3808,5,4416,9,4808,1,5032,3,5712,{ENTER},
13,10,11,8,1,9,4,4,?,?,?,?,516,8,756,1,1492,9,1716,4,2724,{ENTER},
13,10,12,7,2,8,9,5,5,?,?,?,527,7,871,2,2039,8,2119,9,2367,5,4071,{ENTER},
13,10,13,6,9,3,4,6,8,1,?,?,782,6,1070,9,1502,3,1918,4,2134,8,2406,1,3182,{ENTER},
13,10,14,9,2,5,8,7,6,1,3,?,616,9,1104,2,1824,5,2080,8,2288,6,2568,1,2800,3,4872,{ENTER},
13,10,15,3,6,7,9,8,5,4,1,8,321,3,593,6,905,7,1169,9,2025,5,2361,4,2585,1,2785,8,4273,{ENTER},
13,11,1,4,7,5,9,4,?,?,?,?,445,4,1581,7,2069,5,2325,9,2877,{ENTER},
13,11,2,3,5,7,4,5,9,?,?,?,1957,3,2869,5,3157,4,3853,7,4453,9,5237,{ENTER},
13,11,3,5,8,3,6,6,4,1,?,?,869,5,1213,8,1645,3,1893,6,2293,4,2541,1,2781,{ENTER},
13,11,4,2,6,5,4,7,8,1,7,?,593,2,881,6,1329,5,1801,4,2681,8,3065,1,3361,7,3705,{ENTER},
13,11,5,8,1,3,4,8,5,2,7,9,657,2,2081,1,3249,2,3721,4,4329,5,4857,7,5089,9,5329,{ENTER},
13,11,6,2,6,5,8,4,?,?,?,?,1745,2,2065,6,2321,5,2665,8,2985,{ENTER},
13,11,7,2,8,6,1,5,9,?,?,?,505,2,1345,6,1737,8,1969,1,2193,9,2417,{ENTER},
13,11,8,1,2,4,3,6,8,5,?,?,1200,1,1624,2,1992,3,2536,4,2824,8,3096,5,3288,{ENTER},
13,11,9,6,8,5,1,7,9,3,4,?,734,5,2094,8,2894,1,3150,9,3438,3,3662,4,4094,{ENTER},
13,11,10,7,8,5,6,8,4,1,9,3,672,7,1080,6,1920,4,2152,9,2584,1,2840,3,3088,{ENTER},
13,11,11,8,1,9,4,4,?,?,?,?,947,8,1483,1,1867,9,2075,4,2299,{ENTER},
13,11,12,7,2,8,9,5,5,?,?,?,1045,2,2717,7,3109,2,3597,9,5037,1,5237,5,5493,{ENTER},
13,11,13,6,9,3,4,6,8,1,?,?,386,9,706,3,1026,4,1402,8,1698,1,1946,{ENTER},
13,11,14,9,2,5,8,7,6,1,3,?,1100,9,1916,2,2268,5,2676,8,3172,6,3564,1,3804,3,4036,{ENTER},
13,11,15,3,6,7,9,8,5,4,1,8,1133,3,1461,6,1853,9,2701,7,3437,1,3957,4,4205,8,4469,{ENTER},
13,5,1,4,7,5,9,4,?,?,?,?,708,4,940,7,1244,5,1396,9,1740,{ENTER},
13,5,2,3,5,7,4,5,9,?,?,?,468,3,732,5,1124,7,2044,4,2196,9,2700,{ENTER},
13,5,3,5,8,3,6,6,4,1,?,?,28,5,428,8,2172,3,2428,6,2708,4,2948,1,3260,{ENTER},
13,5,4,2,6,5,4,7,8,1,7,?,1222,2,1462,6,1774,5,3126,4,4870,8,6022,7,7350,{ENTER},
13,5,5,8,1,3,4,8,5,2,7,9,2259,8,2451,1,2883,3,6531,2,7115,5,7363,7,7515,9,7707,{ENTER},
13,5,6,2,6,5,8,4,?,?,?,?,1039,2,1271,6,1687,5,1887,8,2151,{ENTER},
13,5,7,2,8,6,1,5,9,?,?,?,208,3,2104,2,4624,2,5456,8,5752,6,6552,{ENTER},
13,5,8,1,2,4,3,6,8,5,?,?,1369,1,1553,2,1729,4,1897,8,2081,5,2409,{ENTER},
13,5,9,6,8,5,1,7,9,3,4,?,2187,6,2467,8,3363,5,3555,1,4059,9,6635,4,7435,{ENTER},
13,5,10,7,8,5,6,8,4,1,9,3,3858,7,4058,8,4858,1,5114,5,6042,4,6306,3,7170,{ENTER},
13,5,11,8,1,9,4,4,?,?,?,?,571,8,1123,1,1251,9,1587,4,1867,{ENTER},
13,5,12,7,2,8,9,5,5,?,?,?,865,7,1377,2,1977,8,2193,9,2561,5,2833,{ENTER},
13,5,13,6,9,3,4,6,8,1,?,?,1079,6,1271,9,5694,8,6390,4,6510,3,6646,1,7478,{ENTER},
13,5,14,9,2,5,8,7,6,1,3,?,2101,9,2317,8,2765,2,5973,1,6117,6,6365,3,6517,{ENTER},
13,5,15,3,6,7,9,8,5,4,1,8,613,3,1341,6,3733,5,6957,7,8085,9,10628,1,10804,4,11180,8,11396,{ENTER},
13,6,1,4,7,5,9,4,?,?,?,?,1112,4,1336,7,1552,5,1720,9,2416,{ENTER},
13,6,2,3,5,7,4,5,9,?,?,?,541,3,909,5,1349,7,1573,4,1757,9,2605,{ENTER},
13,6,3,5,8,3,6,6,4,1,?,?,613,5,805,8,1445,3,1629,6,2589,4,2781,1,3893,{ENTER},
13,6,4,2,6,5,4,7,8,1,7,?,355,2,1539,6,1891,5,2963,4,3523,8,4011,1,4227,7,5587,{ENTER},
13,6,5,8,1,3,4,8,5,2,7,9,230,8,2470,1,2838,3,4229,5,4701,7,5845,2,6053,9,6789,{ENTER},
13,6,6,2,6,5,8,4,?,?,?,?,1854,2,2166,6,2366,5,2518,8,2990,{ENTER},
13,6,7,2,8,6,1,5,9,?,?,?,470,2,926,8,1334,6,1598,1,1734,9,2230,{ENTER},
13,6,8,1,2,4,3,6,8,5,?,?,693,1,1005,2,1301,4,1645,3,1869,8,2061,5,2565,{ENTER},
13,6,9,6,8,5,1,7,9,3,4,?,1296,6,1696,8,2304,5,2824,1,3240,9,4536,3,5360,8,5504,4,6456,{ENTER},
13,6,10,7,8,5,6,8,4,1,9,3,579,7,827,8,3195,6,3571,5,4035,4,4747,1,5307,3,8011,{ENTER},
13,6,11,8,1,9,4,4,?,?,?,?,1668,8,2123,1,2987,9,3163,4,3739,{ENTER},
13,6,12,7,2,8,9,5,5,?,?,?,285,7,629,2,1005,8,1229,9,1413,5,1869,{ENTER},
13,6,13,6,9,3,4,6,8,1,?,?,499,6,915,9,1267,3,6515,4,6883,8,7315,1,9363,{ENTER},
13,6,14,9,2,5,8,7,6,1,3,?,39,9,375,2,631,5,855,8,1143,6,2535,1,2751,3,9959,{ENTER},
13,6,15,3,6,7,9,8,5,4,1,8,428,3,4068,3,4604,7,5692,9,5876,8,6292,5,8508,4,8724,8,10188,{ENTER},
13,8,1,4,7,5,9,4,?,?,?,?,1122,4,1482,7,1906,5,2322,9,2858,{ENTER},
13,8,2,3,5,7,4,5,9,?,?,?,1312,3,1800,5,2792,7,3472,4,3928,9,4520,{ENTER},
13,8,3,5,8,3,6,6,4,1,?,?,992,5,1776,3,2528,8,2800,6,3288,4,3592,1,4352,{ENTER},
13,8,4,2,6,5,4,7,8,1,7,?,1957,2,2341,6,3165,4,5405,5,6429,8,6661,7,7389,{ENTER},
13,8,5,8,1,3,4,8,5,2,7,9,983,8,2727,3,3319,5,4247,4,4479,7,4775,9,5423,{ENTER},
13,8,6,2,6,5,8,4,?,?,?,?,1293,2,2077,8,2525,5,4205,8,5933,{ENTER},
13,8,7,2,8,6,1,5,9,?,?,?,1841,2,2273,8,2665,6,3297,1,3689,9,4601,{ENTER},
13,8,8,1,2,4,3,6,8,5,?,?,515,1,842,2,2978,4,3234,3,3762,8,4378,5,4946,{ENTER},
13,8,9,6,8,5,1,7,9,3,4,?,1607,2,2063,6,2391,8,3199,5,3671,1,4399,9,5063,4,5927,{ENTER},
13,8,10,7,8,5,6,8,4,1,9,3,1197,2,1701,6,2533,7,3381,4,3685,1,4285,9,4709,3,5373,{ENTER},
13,8,11,8,1,9,4,4,?,?,?,?,1276,8,1900,1,2468,9,2964,4,3492,{ENTER},
13,8,12,7,2,8,9,5,5,?,?,?,1232,7,1728,2,2840,8,3392,9,4216,5,4680,{ENTER},
13,8,13,6,9,3,4,6,8,1,?,?,1910,6,2206,9,2614,3,3046,8,3486,4,3822,1,4766,{ENTER},
13,8,14,9,2,5,8,7,6,1,3,?,1273,9,1713,2,2185,8,2473,6,3433,1,3921,3,4297,{ENTER},
13,8,15,3,6,7,9,8,5,4,1,8,981,3,1309,6,1533,7,2557,4,4253,1,4765,8,5245,{ENTER},
13,9,1,4,7,5,9,4,?,?,?,?,778,7,2962,7,3290,5,4162,9,4506,{ENTER},
13,9,2,3,5,7,4,5,9,?,?,?,494,3,1342,5,1830,7,2118,4,2526,9,3462,{ENTER},
13,9,3,5,8,3,6,6,4,1,?,?,96,8,3463,5,3824,3,4080,6,4776,1,5184,{ENTER},
13,9,4,2,6,5,4,7,8,1,7,?,3608,2,4064,6,5664,5,6240,4,6600,8,7264,7,7624,1,8072,{ENTER},
13,9,5,8,1,3,4,8,5,2,7,9,566,8,1454,3,1806,5,2198,4,3990,2,4710,7,5094,1,5478,9,5862,{ENTER},
13,9,6,2,6,5,8,4,?,?,?,?,963,2,1291,6,1571,5,1795,8,2179,{ENTER},
13,9,7,2,8,6,1,5,9,?,?,?,1565,2,1973,8,3261,6,3565,1,3893,9,4325,{ENTER},
13,9,8,1,2,4,3,6,8,5,?,?,1579,1,1947,2,3211,4,4059,3,4411,8,4931,1,5339,5,5819,{ENTER},
13,9,9,6,8,5,1,7,9,3,4,?,952,6,1528,8,2624,1,3264,9,4136,5,5664,3,5968,4,6272,{ENTER},
13,9,10,7,8,5,6,8,4,1,9,3,297,7,713,8,1329,6,1841,5,2185,4,3185,1,4377,9,4705,3,5017,{ENTER},
13,9,11,8,1,9,4,4,?,?,?,?,1430,8,1766,1,2054,9,2342,4,2662,{ENTER},
13,9,12,7,2,8,9,5,5,?,?,?,1766,7,2086,8,2622,2,3014,9,3310,5,3678,{ENTER},
13,9,13,6,9,3,4,6,8,1,?,?,264,6,632,9,1720,3,2096,4,2424,8,2744,1,3208,{ENTER},
13,9,14,9,2,5,8,7,6,1,3,?,311,9,823,2,1159,5,1487,8,2119,6,3167,1,3503,8,3895,3,4183,{ENTER},
13,9,15,3,6,7,9,8,5,4,1,8,510,3,886,6,1694,7,2198,9,3158,4,3390,1,3630,8,3966,{ENTER},
1,3,1,4,7,5,9,4,?,?,?,?,996,4,1812,7,2268,5,2660,9,3916,{ENTER},
1,3,2,3,5,7,4,5,9,?,?,?,913,3,1345,5,1697,7,2057,4,2521,9,3865,{ENTER},
1,3,3,5,8,3,6,6,4,1,?,?,471,5,959,8,1535,3,2183,6,2519,4,2855,1,3767,{ENTER},
1,3,4,2,6,5,4,7,8,1,7,?,620,2,1204,6,2196,5,2484,4,3412,8,4220,1,4692,7,5140,{ENTER},
1,3,5,8,1,3,4,8,5,2,7,9,162,8,674,1,1274,5,1570,4,2026,2,2858,7,3226,9,5434,{ENTER},
1,3,6,2,6,5,8,4,?,?,?,?,1170,2,1802,6,2722,5,3026,8,3434,{ENTER},
1,3,7,2,8,6,1,5,9,?,?,?,466,2,970,6,1658,8,2602,1,3138,9,3938,{ENTER},
1,3,8,1,2,4,3,6,8,5,?,?,1505,1,1737,2,2281,4,3177,8,3681,1,4081,5,4497,{ENTER},
1,3,9,6,8,5,1,7,9,3,4,?,648,6,1496,8,2512,5,3032,1,3728,9,4184,3,4328,4,4848,{ENTER},
1,3,10,7,8,5,6,8,4,1,9,3,794,7,1186,6,1786,5,2298,8,2698,4,3146,1,3770,9,4218,3,4778,{ENTER},
1,3,11,8,1,9,4,4,?,?,?,?,2132,8,2748,1,3476,9,3876,4,4396,{ENTER},
1,3,12,7,2,8,9,5,5,?,?,?,662,7,1118,2,1654,8,2102,9,2574,5,3022,{ENTER},
1,3,13,6,9,3,4,6,8,1,?,?,512,6,976,9,2200,4,2928,3,3736,8,4608,1,5136,{ENTER},
1,3,14,9,2,5,8,7,6,1,3,?,263,9,759,2,1767,5,3223,6,3615,8,4031,1,4263,3,4711,{ENTER},
1,3,15,3,6,7,9,8,5,4,1,8,121,3,777,6,1481,7,1969,9,2489,1,2969,4,3425,8,3817,{ENTER},
14,10,1,4,7,5,9,4,?,?,?,?,691,4,1883,7,2203,5,2427,9,2875,{ENTER},
14,10,2,3,5,7,4,5,9,?,?,?,121,3,417,5,665,7,913,4,1329,9,2281,{ENTER},
14,10,3,5,8,3,6,6,4,1,?,?,463,5,703,8,1023,3,1447,4,1719,6,2063,1,3863,{ENTER},
14,10,4,2,6,5,4,7,8,1,7,?,247,2,943,6,1151,5,1359,4,1567,8,1839,1,2111,7,2543,{ENTER},
14,10,5,8,1,3,4,8,5,2,7,9,894,3,934,6,1374,4,1558,5,1806,7,2190,8,2382,9,2702,1,3518,{ENTER},
14,10,6,2,6,5,8,4,?,?,?,?,1425,2,1625,6,1825,5,2001,8,2329,{ENTER},
14,10,7,2,8,6,1,5,9,?,?,?,214,2,542,8,758,6,1006,1,1270,9,1662,{ENTER},
14,10,8,1,2,4,3,6,8,5,?,?,428,1,628,2,948,4,1228,3,1556,8,1764,5,2156,{ENTER},
14,10,9,6,8,5,1,7,9,3,4,?,295,6,575,8,1359,4,1615,5,1943,1,2583,9,3111,4,3471,{ENTER},
14,10,10,7,8,5,6,8,4,1,9,3,145,8,369,5,601,6,881,1,1137,4,1753,7,1969,9,2281,3,2713,{ENTER},
14,10,11,8,1,9,4,4,?,?,?,?,1155,8,1443,1,1979,9,2179,4,2891,3,3955,{ENTER},
14,10,12,7,2,8,9,5,5,?,?,?,246,7,558,2,822,8,1014,9,1238,5,1518,{ENTER},
14,10,13,6,9,3,4,6,8,1,?,?,82,6,370,9,610,8,938,3,1418,4,1658,5,1922,1,2298,{ENTER},
14,10,14,9,2,5,8,7,6,1,3,?,282,2,506,5,698,8,922,6,1194,1,1466,3,1794,{ENTER},
14,10,15,3,6,7,9,8,5,4,1,8,277,9,637,4,877,1,1373,8,1613,5,1853,6,2637,8,3157,{ENTER},
14,11,1,4,7,5,9,4,?,?,?,?,611,4,835,7,1267,5,1467,9,1867,{ENTER},
14,11,2,3,5,7,4,5,9,?,?,?,948,3,1236,5,1652,7,2516,4,2724,9,5796,{ENTER},
14,11,3,5,8,3,6,6,4,1,?,?,182,5,382,8,646,6,1006,3,1334,1,1854,{ENTER},
14,11,4,2,6,5,4,7,8,1,7,?,1346,2,1522,6,1666,5,1874,4,1994,8,2202,1,2514,7,3298,{ENTER},
14,11,5,8,1,3,4,8,5,2,7,9,401,8,1009,1,1217,5,1505,3,1817,4,2025,7,2217,9,2897,{ENTER},
14,11,6,2,6,5,8,4,?,?,?,?,618,2,762,6,898,5,1114,8,1450,{ENTER},
14,11,7,2,8,6,1,5,9,?,?,?,94,2,262,6,470,8,702,1,894,9,1286,{ENTER},
14,11,8,1,2,4,3,6,8,5,?,?,178,1,346,2,514,4,698,3,922,8,1098,5,5098,{ENTER},
14,11,9,6,8,5,1,7,9,3,4,?,841,6,1073,8,1265,5,1449,1,2185,9,2417,3,2633,4,3185,{ENTER},
14,11,10,7,8,5,6,8,4,1,9,3,375,7,487,8,1975,6,2311,4,2591,9,2911,1,3143,3,3383,{ENTER},
14,11,11,8,1,9,4,4,?,?,?,?,686,8,878,1,1086,9,1206,4,1518,{ENTER},
14,11,12,7,2,8,9,5,5,?,?,?,326,7,534,2,750,8,1398,9,1630,5,2318,{ENTER},
14,11,13,6,9,3,4,6,8,1,?,?,795,6,995,3,1227,9,1747,4,1851,8,2035,1,2419,{ENTER},
14,11,14,9,2,5,8,7,6,1,3,?,720,2,1384,9,1880,5,2096,8,2360,1,2720,6,2984,3,3248,{ENTER},
14,11,15,3,6,7,9,8,5,4,1,8,485,3,701,6,949,7,1205,5,1485,9,2085,4,2309,1,2461,8,2805,{ENTER},
14,5,1,4,7,5,9,4,?,?,?,?,1491,4,2163,7,2651,5,2963,9,3731,{ENTER},
14,5,2,3,5,7,4,5,9,?,?,?,1491,3,1891,5,2435,7,2835,4,3355,9,4211,{ENTER},
14,5,3,5,8,3,6,6,4,1,?,?,2929,5,3361,8,4801,3,5153,6,5553,4,5785,1,6777,{ENTER},
14,5,4,2,6,5,4,7,8,1,7,?,6769,2,7273,6,7953,8,8377,5,8665,4,8929,1,9345,7,10537,{ENTER},
14,5,5,8,1,3,4,8,5,2,7,9,4369,8,4841,1,5457,3,5977,4,6705,5,8697,2,9153,7,9625,9,10401,{ENTER},
14,5,6,2,6,5,8,4,?,?,?,?,2230,2,2966,6,3182,5,3390,8,4262,{ENTER},
14,5,7,2,8,6,1,5,9,?,?,?,1723,2,2299,8,2787,6,3211,1,3699,9,4339,{ENTER},
14,5,8,1,2,4,3,6,8,5,?,?,1779,1,2163,2,2643,4,3243,3,3771,8,4011,5,4499,{ENTER},
14,5,9,6,8,5,1,7,9,3,4,?,6839,6,7383,8,7727,5,8607,1,9455,3,9895,9,10199,4,14199,{ENTER},
14,5,10,7,8,5,6,8,4,1,9,3,4113,7,4561,8,4945,5,5697,6,6265,4,6585,1,7065,9,7745,3,8521,{ENTER},
14,5,11,8,1,9,4,4,?,?,?,?,2300,8,3084,1,3692,9,4148,4,4996,{ENTER},
14,5,12,7,2,8,9,5,5,?,?,?,1984,7,2632,2,3168,8,3480,9,3815,5,4648,{ENTER},
14,5,13,6,9,3,4,6,8,1,?,?,4994,6,5442,9,6010,3,6562,4,6906,8,7554,1,8514,{ENTER},
14,5,14,9,2,5,8,7,6,1,3,?,3992,9,4592,2,5096,8,5480,5,5784,6,6168,1,6624,3,7536,{ENTER},
14,5,15,3,6,7,9,8,5,4,1,8,5557,3,5869,6,6309,7,6805,5,7301,9,7749,4,8157,1,8525,8,9709,{ENTER},
14,8,1,4,7,5,9,4,?,?,?,?,801,4,1025,7,1553,5,1825,9,2161,{ENTER},
14,8,2,3,5,7,4,5,9,?,?,?,1479,3,1703,5,2071,7,2367,4,2783,9,3567,{ENTER},
14,8,3,5,8,3,6,6,4,1,?,?,856,5,1288,8,2376,3,3008,6,3760,4,4032,1,4408,{ENTER},
14,8,4,2,6,5,4,7,8,1,7,?,865,2,1025,5,1289,6,10137,4,10289,8,11169,1,11385,7,11793,{ENTER},
14,8,5,8,1,3,4,8,5,2,7,9,3195,3,3475,8,3827,4,5211,1,7731,5,7955,2,8547,7,8715,9,9203,{ENTER},
14,8,6,2,6,5,8,4,?,?,?,?,932,2,1108,6,1332,5,1628,8,3131,{ENTER},
14,8,7,2,8,6,1,5,9,?,?,?,677,2,973,8,1237,6,1469,1,1677,9,2117,{ENTER},
14,8,8,1,2,4,3,6,8,5,?,?,735,1,927,2,1327,4,1615,3,2135,8,2407,5,2863,{ENTER},
14,8,9,6,8,5,1,7,9,3,4,?,683,6,843,8,1179,1,4291,5,5235,9,5627,3,5931,4,6307,{ENTER},
14,8,10,7,8,5,6,8,4,1,9,3,870,7,974,8,1494,5,1750,6,2814,4,3158,1,3438,9,3870,3,4254,{ENTER},
14,8,11,8,1,9,4,4,?,?,?,?,1914,8,2114,1,2362,9,2626,4,3194,{ENTER},
14,8,12,7,2,8,9,5,5,?,?,?,1994,7,2194,2,2466,8,2762,9,3154,5,3626,{ENTER},
14,8,13,6,9,3,4,6,8,1,?,?,746,6,954,9,1234,3,5906,4,6338,8,7034,1,7378,{ENTER},
14,8,14,9,2,5,8,7,6,1,3,?,277,9,589,5,885,8,1253,6,1669,1,2357,3,2757,{ENTER},
14,8,15,3,6,7,9,8,5,4,1,8,393,3,617,6,913,7,1129,9,1881,5,2521,4,2769,1,3297,8,3649,{ENTER},
14,9,1,4,7,5,9,4,?,?,?,?,574,4,758,7,1182,5,1438,9,1846,{ENTER},
14,9,2,3,5,7,4,5,9,?,?,?,379,3,667,5,899,7,1155,4,1443,9,1963,{ENTER},
14,9,3,5,8,3,6,6,4,1,?,?,1148,5,3612,8,3956,3,4228,6,4667,9,6219,4,6411,1,6747,{ENTER},
14,9,4,2,6,5,4,7,8,1,7,?,603,2,867,6,1099,5,1659,4,2411,1,2851,8,3091,1,3339,7,3979,{ENTER},
14,9,5,8,1,3,4,8,5,2,7,9,2307,8,2619,1,2867,3,3451,4,3579,5,5011,7,5347,2,6531,6,6795,9,7771,{ENTER},
14,9,6,2,6,5,8,4,?,?,?,?,1492,2,1692,6,1916,5,2156,8,2780,{ENTER},
14,9,7,2,8,6,1,5,9,?,?,?,1304,2,1680,8,2288,6,2864,1,4312,9,5672,5,6439,{ENTER},
14,9,8,1,2,4,3,6,8,5,?,?,1006,1,1278,2,1566,4,1822,3,2350,8,3158,5,3550,{ENTER},
14,9,9,6,8,5,1,7,9,3,4,?,1450,6,1874,1,2266,9,2642,5,3042,8,4122,3,4498,8,4754,4,5074,{ENTER},
14,9,10,7,8,5,6,8,4,1,9,3,777,7,841,8,1241,5,1321,6,1673,4,2153,1,3001,9,3353,3,3777,{ENTER},
14,9,11,8,1,9,4,4,?,?,?,?,1697,8,2001,1,2273,9,2537,4,2865,{ENTER},
14,9,12,7,2,8,9,5,5,?,?,?,724,7,1052,2,1364,8,1572,9,1780,5,2308,{ENTER},
14,9,13,6,9,3,4,6,8,1,?,?,1232,6,1472,9,1864,3,2192,4,2432,8,2712,1,4272,{ENTER},
14,9,14,9,2,5,8,7,6,1,3,?,1371,9,1811,8,2291,2,2771,5,3123,6,3363,3,4227,2,5835,{ENTER},
14,9,15,3,6,7,9,8,5,4,1,8,1458,3,1674,6,1962,7,2170,8,2378,9,2858,4,3050,5,3290,8,3826,{ENTER},
1,4,1,4,7,5,9,4,?,?,?,?,240,4,608,7,1120,5,1528,9,1944,{ENTER},
1,4,2,3,5,7,4,5,9,?,?,?,911,3,1367,5,1927,7,2503,4,2959,9,3399,{ENTER},
1,4,3,5,8,3,6,6,4,1,?,?,491,5,939,8,1411,6,1795,3,2939,4,3459,1,4531,{ENTER},
1,4,4,2,6,5,4,7,8,1,7,?,409,2,785,5,1105,4,1441,6,1721,8,2505,1,2865,7,4113,{ENTER},
1,4,5,8,1,3,4,8,5,2,7,9,1034,8,1434,5,1778,4,2290,3,4098,2,6138,7,7546,9,7994,{ENTER},
1,4,6,2,6,5,8,4,?,?,?,?,2028,2,2372,6,2636,5,2868,8,3220,{ENTER},
1,4,7,2,8,6,1,5,9,?,?,?,531,2,851,8,1211,6,1923,1,2435,9,4051,{ENTER},
1,4,8,1,2,4,3,6,8,5,?,?,974,1,1302,2,1614,4,1894,3,2174,8,2406,5,2758,{ENTER},
1,4,9,6,8,5,1,7,9,3,4,?,425,6,713,8,953,5,1209,1,1481,9,2033,3,2305,4,2689,{ENTER},
1,4,10,7,8,5,6,8,4,1,9,3,251,7,458,8,770,5,1018,6,1322,4,1794,1,2002,9,2346,3,3002,{ENTER},
1,4,11,8,1,9,4,4,?,?,?,?,657,8,961,1,1489,9,1897,4,2313,{ENTER},
1,4,12,7,2,8,9,5,5,?,?,?,973,7,1525,2,1957,8,2357,9,2813,5,3301,{ENTER},
1,4,13,6,9,3,4,6,8,1,?,?,266,9,4274,9,6026,3,6410,4,6706,8,7034,1,7306,{ENTER},
1,4,14,9,2,5,8,7,6,1,3,?,19,9,651,2,1195,5,1619,8,2131,6,2563,1,2963,3,3499,{ENTER},
1,4,15,3,6,7,9,8,5,4,1,8,114,7,2242,6,3122,7,4698,9,5018,5,5458,4,5850,1,6250,8,7554,{ENTER},
15,10,1,4,7,5,9,4,?,?,?,?,186,4,346,7,466,5,610,9,986,{ENTER},
15,10,2,3,5,7,4,5,9,?,?,?,523,3,635,5,907,7,1235,4,1483,9,2131,{ENTER},
15,10,3,5,8,3,6,6,4,1,?,?,1298,5,1506,7,1778,4,2066,1,2322,9,2746,{ENTER},
15,10,4,2,6,5,4,7,8,1,7,?,1421,2,1533,6,1637,5,1813,4,2013,1,2285,7,2709,{ENTER},
15,10,5,8,1,3,4,8,5,2,7,9,324,1,452,3,788,3,788,4,1052,5,1676,7,1828,2,2092,9,5732,{ENTER},
15,10,6,2,6,5,8,4,?,?,?,?,5956,2,6132,6,6308,5,8364,{ENTER},
15,10,7,2,8,6,1,5,9,?,?,?,31,2,167,6,303,1,407,9,799,{ENTER},
15,10,8,1,2,4,3,6,8,5,?,?,503,1,567,2,895,4,991,3,1183,5,1583,{ENTER},
15,10,9,6,8,5,1,7,9,3,4,?,179,6,299,5,571,1,843,9,1083,3,1307,4,2051,{ENTER},
15,10,10,7,8,5,6,8,4,1,9,3,428,7,660,5,972,6,1188,4,1780,2,2004,9,3500,3,3764,{ENTER},
15,10,11,8,1,9,4,4,?,?,?,?,2186,1,2330,9,2546,4,2738,5,2954,{ENTER},
15,10,12,7,2,8,9,5,5,?,?,?,591,7,719,5,895,9,1103,4,1383,{ENTER},
15,10,13,6,9,3,4,6,8,1,?,?,1039,6,1191,9,1471,3,1535,4,1839,1,2287,{ENTER},
15,10,14,9,2,5,8,7,6,1,3,?,1110,9,1502,2,1934,5,2174,6,2398,1,2638,3,3142,{ENTER},
15,10,15,3,6,7,9,8,5,4,1,8,516,3,788,6,1324,7,1532,9,1924,5,2148,4,2380,1,2780,{ENTER},
2,5,1,4,7,5,9,4,?,?,?,?,1452,4,1756,7,2028,5,2508,9,2948,{ENTER},
2,5,2,3,5,7,4,5,9,?,?,?,1535,3,1839,5,2591,7,2823,4,3487,9,4071,{ENTER},
2,5,3,5,8,3,6,6,4,1,?,?,654,5,870,8,1774,3,2798,6,3614,4,3966,1,4702,{ENTER},
2,5,4,2,6,5,4,7,8,1,7,?,975,2,1215,5,4271,4,4647,6,5383,8,5663,1,5926,7,6559,{ENTER},
2,5,5,8,1,3,4,8,5,2,7,9,754,8,1250,3,2002,5,2218,4,4554,2,4834,1,5098,7,5978,{ENTER},
2,5,6,2,6,5,8,4,?,?,?,?,884,2,1356,6,1708,5,2028,8,2764,{ENTER},
2,5,7,2,8,6,1,5,9,?,?,?,813,2,1229,8,1557,6,1917,1,2853,9,3613,{ENTER},
2,5,8,1,2,4,3,6,8,5,?,?,839,1,1463,2,3367,3,3831,8,4447,5,4607,4,5535,{ENTER},
2,5,9,6,8,5,1,7,9,3,4,?,988,6,1236,8,1788,5,2868,1,5036,6,5348,4,6068,{ENTER},
2,5,10,7,8,5,6,8,4,1,9,3,542,7,758,8,2550,6,2726,5,10661,3,10981,4,11221,1,11901,{ENTER},
2,5,11,8,1,9,4,4,?,?,?,?,555,8,875,1,1251,9,1475,4,1859,{ENTER},
2,5,12,7,2,8,9,5,5,?,?,?,459,7,1115,2,1403,5,2339,9,3859,5,5691,{ENTER},
2,5,13,6,9,3,4,6,8,1,?,?,1039,6,1295,9,1871,3,2183,4,3519,8,3703,1,4335,{ENTER},
2,5,14,9,2,5,8,7,6,1,3,?,1288,7,1920,8,3176,2,4504,9,5304,6,5520,3,6408,{ENTER},
2,5,15,3,6,7,9,8,5,4,1,8,893,3,1149,6,1381,9,2749,7,2869,8,3261,5,4493,4,4869,8,5293,{ENTER},
16,10,1,4,7,5,9,4,?,?,?,?,694,4,878,7,1110,5,1310,9,1638,{ENTER},
16,10,2,3,5,7,4,5,9,?,?,?,727,3,951,5,1151,7,1351,4,1567,9,1799,{ENTER},
16,10,3,5,8,3,6,6,4,1,?,?,805,5,1069,1,1324,8,1700,3,1956,6,2308,4,2676,1,3276,{ENTER},
16,10,4,2,6,5,4,7,8,1,7,?,1239,2,1463,6,1687,5,2023,4,2471,8,2687,7,3447,{ENTER},
16,10,5,8,1,3,4,8,5,2,7,9,1003,8,1291,1,1587,3,1931,4,2275,5,2571,2,2907,7,3219,9,4075,{ENTER},
16,10,6,2,6,5,8,4,?,?,?,?,871,2,1079,6,1327,5,1535,8,1887,{ENTER},
16,10,7,2,8,6,1,5,9,?,?,?,492,2,716,8,972,6,1836,1,2316,9,2972,{ENTER},
16,10,8,1,2,4,3,6,8,5,?,?,869,1,1101,2,1349,4,1685,3,1941,8,2165,5,2509,{ENTER},
16,10,9,6,8,5,1,7,9,3,4,?,657,6,881,8,1161,5,1481,1,2713,9,2937,8,3313,3,3601,4,5137,{ENTER},
16,10,10,7,8,5,6,8,4,1,9,3,709,7,933,8,1213,5,2045,6,2757,4,3077,1,3669,9,3917,8,4469,3,4829,{ENTER},
16,10,11,8,1,9,4,4,?,?,?,?,756,8,1116,1,1564,9,1876,4,2380,{ENTER},
16,10,12,7,2,8,9,5,5,?,?,?,101,7,477,2,765,8,1045,9,1324,5,1661,{ENTER},
16,10,13,6,9,3,4,6,8,1,?,?,906,6,1122,9,1466,3,3018,4,3226,8,3458,1,3474,4,7978,{ENTER},
16,10,14,9,2,5,8,7,6,1,3,?,698,9,1018,2,1266,5,1578,8,1978,6,2298,1,2673,3,2969,{ENTER},
16,10,15,3,6,7,9,8,5,4,1,8,1081,3,1553,6,1977,7,2929,8,3209,9,4097,4,4673,3,4921,8,5777,{ENTER},
1,6,1,4,7,5,9,4,?,?,?,?,565,4,1021,7,1413,5,1637,9,1997,{ENTER},
1,6,2,3,5,7,4,5,9,?,?,?,350,3,614,5,926,7,1214,4,1430,9,1798,{ENTER},
1,6,3,5,8,3,6,6,4,1,?,?,151,8,1607,5,3871,6,4175,3,4487,4,4719,1,4999,{ENTER},
1,6,4,2,6,5,4,7,8,1,7,?,1628,2,2156,6,2460,5,2724,4,3012,8,3332,1,3580,7,4316,{ENTER},
1,6,5,8,1,3,4,8,5,2,7,9,581,8,861,1,2077,3,2885,4,3405,5,4925,2,5277,9,5917,7,6397,{ENTER},
1,6,6,2,6,5,8,4,?,?,?,?,550,2,862,6,1086,5,1262,8,1558,{ENTER},
1,6,7,2,8,6,1,5,9,?,?,?,314,2,633,8,881,6,1129,1,1433,9,1777,{ENTER},
1,6,8,1,2,4,3,6,8,5,?,?,582,1,910,2,1166,4,2350,3,2694,8,2926,5,3166,{ENTER},
1,6,9,6,8,5,1,7,9,3,4,?,226,6,602,5,954,8,1834,1,2410,9,2858,3,3178,4,3554,{ENTER},
1,6,10,7,8,5,6,8,4,1,9,3,89,7,417,8,809,5,1057,6,1705,4,2001,1,2273,9,2577,3,3001,{ENTER},
1,6,11,8,1,9,4,4,?,?,?,?,353,8,1697,1,2065,9,2521,4,2913,{ENTER},
1,6,12,7,2,8,9,5,5,?,?,?,532,7,1868,1,3308,8,3684,9,3916,5,4204,{ENTER},
1,6,13,6,9,3,4,6,8,1,?,?,8,6,376,9,2216,4,2552,3,2856,8,3544,1,3824,{ENTER},
1,6,14,9,2,5,8,7,6,1,3,?,60,9,716,5,1636,2,2036,8,2524,6,2940,1,3476,3,3724,{ENTER},
1,6,15,3,6,7,9,8,5,4,1,8,133,3,613,6,1037,7,1453,9,2565,5,2885,4,3701,1,4181,8,4613,{ENTER},
17,10,1,4,7,5,9,4,?,?,?,?,1458,4,2314,7,2618,5,3210,9,3754,{ENTER},
17,10,2,3,5,7,4,5,9,?,?,?,1046,3,1678,5,2302,7,2902,4,3654,9,5654,{ENTER},
17,10,3,5,8,3,6,6,4,1,?,?,2105,5,2449,3,3937,8,4809,6,5153,4,5553,1,6449,{ENTER},
17,10,4,2,6,5,4,7,8,1,7,?,1917,2,2749,5,3045,6,3453,4,4309,8,4845,1,5485,7,6317,{ENTER},
17,10,5,8,1,3,4,8,5,2,7,9,2325,8,3077,1,4229,2,4941,4,5237,5,9973,7,10493,9,11293,{ENTER},
17,10,6,2,6,5,8,4,?,?,?,?,2053,2,2813,6,3109,5,3685,8,4565,{ENTER},
17,10,7,2,8,6,1,5,9,?,?,?,1225,2,1905,8,2281,6,2753,1,3345,9,4057,{ENTER},
17,10,8,1,2,4,3,6,8,5,?,?,1457,1,2193,2,2681,4,2953,3,3873,8,4249,5,5441,{ENTER},
17,10,9,6,8,5,1,7,9,3,4,?,2109,6,2997,8,3325,9,4109,1,6397,3,6709,5,6941,4,8557,{ENTER},
17,10,10,7,8,5,6,8,4,1,9,3,745,7,1105,8,1673,6,2729,5,3017,4,4809,1,5601,3,6416,{ENTER},
17,10,11,8,1,9,4,4,?,?,?,?,1371,8,1955,1,2611,9,3067,4,3771,{ENTER},
17,10,12,7,2,8,9,5,5,?,?,?,1860,7,2516,2,3412,8,3844,9,4356,5,5116,{ENTER},
17,10,13,6,9,3,4,6,8,1,?,?,2605,6,2973,5,3653,9,4533,2,8212,8,8908,4,9236,1,10324,{ENTER},
17,10,14,9,2,5,8,7,6,1,3,?,1245,9,1917,2,3181,5,4093,8,4517,6,5029,1,5565,3,6533,{ENTER},
17,10,15,3,6,7,9,8,5,4,1,8,4005,9,6045,6,7085,7,7533,5,8013,1,8629,8,9413,{ENTER},
1,7,1,4,7,5,9,4,?,?,?,?,2535,4,2743,7,3031,5,3271,9,3911,{ENTER},
1,7,2,3,5,7,4,5,9,?,?,?,2285,3,2637,5,2933,7,3173,4,3485,9,4269,{ENTER},
1,7,3,5,8,3,6,6,4,1,?,?,1949,5,2141,8,2429,3,2597,6,2877,4,3037,1,4029,{ENTER},
1,7,4,2,6,5,4,7,8,1,7,?,863,2,1079,6,1615,5,1847,4,2087,8,2343,1,2567,7,3319,{ENTER},
1,7,5,8,1,3,4,8,5,2,7,9,1800,8,2048,1,2328,3,3760,4,3952,5,4120,2,4368,7,4584,9,5183,{ENTER},
1,7,6,2,6,5,8,4,?,?,?,?,2041,2,2241,6,2465,5,2633,8,3185,{ENTER},
1,7,7,2,8,6,1,5,9,?,?,?,1610,2,1874,8,2106,6,2402,1,2602,9,3258,{ENTER},
1,7,8,1,2,4,3,6,8,5,?,?,465,1,681,2,1337,4,1961,3,2273,8,2457,5,3049,{ENTER},
1,7,9,6,8,5,1,7,9,3,4,?,2131,6,2403,8,2659,5,2979,1,3307,9,3627,3,3907,4,5539,{ENTER},
1,7,10,7,8,5,6,8,4,1,9,3,1387,7,1595,8,1819,5,2219,1,4275,9,4475,4,4763,3,5291,{ENTER},
1,7,11,8,1,9,4,4,?,?,?,?,768,8,1000,1,1248,9,1416,4,1888,{ENTER},
1,7,12,7,2,8,9,5,5,?,?,?,1332,7,1708,2,2732,8,2932,9,3139,5,3691,{ENTER},
1,7,13,6,9,3,4,6,8,1,?,?,602,6,794,9,1434,3,1842,4,2042,8,2266,1,2546,{ENTER},
1,7,14,9,2,5,8,7,6,1,3,?,840,9,1184,2,2576,5,2768,8,2992,6,3264,1,3536,3,5128,{ENTER},
1,7,15,3,6,7,9,8,5,4,1,8,716,3,956,6,1292,7,1636,9,2116,4,2308,1,2532,8,3228,{ENTER},
1,8,1,4,7,5,9,4,?,?,?,?,1549,4,1885,7,2125,5,2581,9,2901,{ENTER},
1,8,2,3,5,7,4,5,9,?,?,?,4114,3,4994,5,6210,7,6786,4,7178,9,7514,{ENTER},
1,8,3,5,8,3,6,6,4,1,?,?,4457,5,4857,8,5921,7,6384,4,7072,1,7392,{ENTER},
1,8,4,2,6,5,4,7,8,1,7,?,3534,2,4006,6,4766,5,5398,4,5990,8,6526,1,6958,7,7278,{ENTER},
1,8,5,8,1,3,4,8,5,2,7,9,181,8,676,1,4188,2,4484,4,6660,5,6924,7,7636,{ENTER},
1,8,6,2,6,5,8,4,?,?,?,?,892,2,1284,6,1876,5,2284,8,2620,{ENTER},
1,8,7,2,8,6,1,5,9,?,?,?,1148,2,1644,8,2084,6,2500,1,2900,8,3235,{ENTER},
1,8,8,1,2,4,3,6,8,5,?,?,395,1,1411,2,2059,4,2699,3,3259,8,3795,5,4251,{ENTER},
1,8,9,6,8,5,1,7,9,3,4,?,1075,6,1483,8,2667,2,3315,5,5491,3,5650,4,6043,{ENTER},
1,8,10,7,8,5,6,8,4,1,9,3,739,7,1011,8,1515,5,1811,4,3987,9,4547,1,4907,3,5635,{ENTER},
1,8,11,8,1,9,4,4,?,?,?,?,1042,8,1434,1,1874,9,2282,4,2738,{ENTER},
1,8,12,7,2,8,9,5,5,?,?,?,653,7,1077,2,1501,8,1749,9,2293,5,2733,{ENTER},
1,8,13,6,9,3,4,6,8,1,?,?,665,6,1145,9,3361,5,3593,4,4353,3,4849,1,5409,{ENTER},
1,8,14,9,2,5,8,7,6,1,3,?,2140,9,2700,2,3492,5,3900,8,4372,1,4804,3,5684,{ENTER},
1,8,15,3,6,7,9,8,5,4,1,8,1422,3,1878,6,2246,7,2782,9,3366,5,4542,3,4870,1,5270,8,5614,{ENTER},
1,9,1,4,7,5,9,4,?,?,?,?,1576,4,2296,7,2776,5,3416,9,4000,{ENTER},
1,9,2,3,5,7,4,5,9,?,?,?,1537,3,2032,5,2608,7,3080,4,3856,9,4536,{ENTER},
1,9,3,5,8,3,6,6,4,1,?,?,922,5,1346,7,1842,8,2378,6,2810,4,3242,1,3842,{ENTER},
1,9,4,2,6,5,4,7,8,1,7,?,1348,2,2028,6,2931,5,5355,8,7803,1,8347,7,9643,{ENTER},
1,9,5,8,1,3,4,8,5,2,7,9,1786,8,2330,1,3034,5,4218,4,4834,3,5402,7,5874,9,7114,{ENTER},
1,9,6,2,6,5,8,4,?,?,?,?,950,2,2038,6,2686,5,3198,8,3638,{ENTER},
1,9,7,2,8,6,1,5,9,?,?,?,1196,2,1980,6,2676,8,7548,1,8364,9,9204,{ENTER},
1,9,8,1,2,4,3,6,8,5,?,?,2127,1,2447,2,2919,4,3183,3,4223,8,4543,5,5583,{ENTER},
1,9,9,6,8,5,1,7,9,3,4,?,1147,6,1635,8,2035,5,2867,1,3515,9,4155,3,4411,4,5339,{ENTER},
1,9,10,7,8,5,6,8,4,1,9,3,1265,7,1617,8,2809,6,3201,4,8249,1,8865,9,9257,3,10201,{ENTER},
1,9,11,8,1,9,4,4,?,?,?,?,1483,8,1939,1,3211,9,3667,4,4403,{ENTER},
1,9,12,7,2,8,9,5,5,?,?,?,1290,7,1570,8,2306,1,5498,2,6106,9,6994,{ENTER},
1,9,13,6,9,3,4,6,8,1,?,?,627,6,1139,9,2763,1,5123,3,5331,4,6291,8,6515,9,7363,{ENTER},
1,9,14,9,2,5,8,7,6,1,3,?,2167,9,4183,6,4927,8,5903,5,6863,1,7455,3,9607,9,10095,{ENTER},
1,9,15,3,6,7,9,8,5,4,1,8,1783,3,2535,6,2943,7,3327,5,4911,4,6295,1,7247,8,8399,{ENTER},
2,10,1,4,7,5,9,4,?,?,?,?,1255,4,1695,7,2111,5,2471,9,2943,{ENTER},
2,10,2,3,5,7,4,5,9,?,?,?,1234,3,2306,7,6034,4,7402,5,7626,9,7994,{ENTER},
2,10,3,5,8,3,6,6,4,1,?,?,432,5,1120,8,1864,3,2736,6,3112,1,3832,{ENTER},
2,10,4,2,6,5,4,7,8,1,7,?,552,2,976,6,1312,4,4600,8,5040,1,5344,7,5896,{ENTER},
2,10,5,8,1,3,4,8,5,2,7,9,1935,8,2207,1,2487,7,5863,2,8718,1,8942,5,9230,9,9958,{ENTER},
2,10,6,2,6,5,8,4,?,?,?,?,922,2,1754,6,2418,5,2690,8,3394,{ENTER},
2,10,7,2,8,6,1,5,9,?,?,?,1915,2,2371,6,2779,8,3099,1,3371,9,3931,{ENTER},
2,10,8,1,2,4,3,6,8,5,?,?,688,1,1112,2,1960,4,4352,3,4872,8,5248,5,5616,{ENTER},
2,10,9,6,8,5,1,7,9,3,4,?,313,5,545,6,841,8,1265,1,2681,9,3337,3,3569,4,4369,{ENTER},
2,10,10,7,8,5,6,8,4,1,9,3,1437,7,1677,8,3797,5,4037,6,5085,1,7125,9,7957,3,9173,4,10301,{ENTER},
2,10,11,8,1,9,4,4,?,?,?,?,1280,8,1536,9,2336,1,2552,4,3104,{ENTER},
2,10,12,7,2,8,9,5,5,?,?,?,1325,7,1797,8,3653,9,3957,2,4237,5,4845,{ENTER},
2,10,13,6,9,3,4,6,8,1,?,?,669,6,1101,9,5813,7,7573,1,8149,4,8349,5,9165,{ENTER},
2,10,14,9,2,5,8,7,6,1,3,?,754,9,1354,2,2274,5,2722,6,3442,8,3882,1,4162,3,4858,{ENTER},
2,10,15,3,6,7,9,8,5,4,1,8,1475,3,2955,6,4043,9,5419,8,5867,7,6611,1,9259,8,9835,{ENTER},
2,11,1,4,7,5,9,4,?,?,?,?,1167,4,1607,7,1959,5,2591,9,3463,{ENTER},
2,11,2,3,5,7,4,5,9,?,?,?,1139,3,1659,5,2187,7,2515,4,2851,9,3891,{ENTER},
2,11,3,5,8,3,6,6,4,1,?,?,1114,5,1562,8,2202,3,2674,6,3570,4,3810,1,5050,{ENTER},
2,11,4,2,6,5,4,7,8,1,7,?,1266,2,1546,6,1954,5,2210,4,2474,8,2746,1,3394,3,5889,{ENTER},
2,11,5,8,1,3,4,8,5,2,7,9,834,8,1226,1,1994,3,2290,4,2938,5,3210,2,3946,7,4218,9,4650,{ENTER},
2,11,6,2,6,5,8,4,?,?,?,?,984,2,1200,6,1392,5,1568,8,1976,{ENTER},
2,11,7,2,8,6,1,5,9,?,?,?,905,2,1345,8,1841,6,2161,1,2369,9,2889,{ENTER},
2,11,8,1,2,4,3,6,8,5,?,?,1013,1,1381,2,1669,4,2397,3,2661,8,2885,5,3301,{ENTER},
2,11,9,6,8,5,1,7,9,3,4,?,1076,6,1412,8,1804,5,3604,9,4228,3,4612,4,5316,{ENTER},
2,11,10,7,8,5,6,8,4,1,9,3,899,7,1179,8,1523,5,1843,6,4611,4,5283,9,6179,3,6547,{ENTER},
2,11,11,8,1,9,4,4,?,?,?,?,1051,8,1331,1,1563,9,1747,4,2067,{ENTER},
2,11,12,7,2,8,9,5,5,?,?,?,967,7,1295,2,1575,8,1791,9,2023,5,2351,{ENTER},
2,11,13,6,9,3,4,6,8,1,?,?,858,6,1170,9,1498,3,1770,4,1970,8,2618,1,2858,{ENTER},
2,11,14,9,2,5,8,7,6,1,3,?,1019,9,1307,2,1627,5,2251,8,3203,6,3459,1,3659,3,3907,{ENTER},
2,11,15,3,6,7,9,8,5,4,1,8,882,3,1130,6,1450,7,2074,9,2338,4,5794,5,5970,8,6362,{ENTER},
2,2,1,4,7,5,9,4,?,?,?,?,125,4,293,7,549,5,661,9,957,{ENTER},
2,2,2,3,5,7,4,5,9,?,?,?,441,3,737,5,993,7,1161,4,1353,9,1689,{ENTER},
2,2,3,5,8,3,6,6,4,1,?,?,1688,5,1856,8,2344,3,2560,6,2816,4,2968,1,3256,{ENTER},
2,2,4,2,6,5,4,7,8,1,7,?,624,2,824,5,1016,6,1224,4,1616,1,1848,7,2176,{ENTER},
2,2,5,8,1,3,4,8,5,2,7,9,528,8,880,1,1216,3,1600,4,1864,5,2272,7,2648,2,2784,9,3128,{ENTER},
2,2,6,2,6,5,8,4,?,?,?,?,1714,2,1842,6,1938,5,2106,8,2402,{ENTER},
2,2,7,2,8,6,1,5,9,?,?,?,603,2,843,8,1155,6,1419,1,1627,9,1923,{ENTER},
2,2,8,1,2,4,3,6,8,5,?,?,1672,2,2160,4,2912,3,3192,8,3648,1,3744,5,4032,{ENTER},
2,2,9,6,8,5,1,7,9,3,4,?,667,6,827,8,1291,5,1667,1,1875,9,2179,3,2355,4,2539,{ENTER},
2,2,10,7,8,5,6,8,4,1,9,3,668,7,948,8,1252,5,2684,6,4212,4,4532,1,4692,9,4980,3,5420,{ENTER},
2,2,11,8,1,9,4,4,?,?,?,?,997,8,1285,1,1485,9,1757,4,1989,{ENTER},
2,2,12,7,2,8,9,5,5,?,?,?,798,7,1150,2,1494,8,1758,9,1950,5,2206,{ENTER},
2,2,13,6,9,3,4,6,8,1,?,?,1401,6,1705,4,2185,3,2600,9,2705,8,3120,1,3304,{ENTER},
2,2,14,9,2,5,8,7,6,1,3,?,437,9,789,2,1045,5,1197,8,1437,6,1829,1,2085,3,2349,{ENTER},
2,2,15,3,6,7,9,8,5,4,1,8,978,3,1250,6,1642,7,1890,9,2666,5,3386,4,3762,1,3882,8,4362,{ENTER},
2,3,1,4,7,5,9,4,?,?,?,?,1143,4,1535,7,1855,5,2295,9,2927,{ENTER},
2,3,2,3,5,7,4,5,9,?,?,?,2570,3,3146,5,3530,7,3954,4,4410,9,5417,{ENTER},
2,3,3,5,8,3,6,6,4,1,?,?,1339,5,2083,8,2643,3,7043,7,7267,6,7827,4,8219,1,9387,{ENTER},
2,3,4,2,6,5,4,7,8,1,7,?,2664,4,4424,6,5488,4,5936,8,6216,7,6688,{ENTER},
2,3,5,8,1,3,4,8,5,2,7,9,2121,8,2617,1,3025,4,3449,2,3689,3,4089,7,4369,9,5257,{ENTER},
2,3,6,2,6,5,8,4,?,?,?,?,1319,2,2310,6,2590,5,2999,8,3614,{ENTER},
2,3,7,2,8,6,1,5,9,?,?,?,1351,2,2703,8,3407,6,3847,1,4695,9,5559,{ENTER},
2,3,8,1,2,4,3,6,8,5,?,?,2546,1,2890,2,3658,4,7730,8,8522,3,8794,5,9218,{ENTER},
2,3,9,6,8,5,1,7,9,3,4,?,1157,6,1565,8,2061,5,2653,9,7101,3,7293,1,7565,4,8269,{ENTER},
2,3,10,7,8,5,6,8,4,1,9,3,2662,7,3454,8,4254,4,12326,2,13454,6,18702,2,19278,9,19646,1,20310,{ENTER},
2,3,11,8,1,9,4,4,?,?,?,?,1614,8,1950,9,2502,1,2878,4,3318,{ENTER},
2,3,12,7,2,8,9,5,5,?,?,?,1226,7,2338,2,2842,8,3362,9,5098,5,5954,{ENTER},
2,3,13,6,9,3,4,6,8,1,?,?,597,6,1045,9,1621,3,3101,8,4053,4,4493,1,5037,{ENTER},
2,3,14,9,2,5,8,7,6,1,3,?,419,9,1155,2,2531,8,3091,5,4043,6,4611,1,5427,3,5835,{ENTER},
2,3,15,3,6,7,9,8,5,4,1,8,356,3,868,6,1380,7,1860,9,2508,5,3276,4,3756,1,4460,8,5188,{ENTER},
2,5,1,4,7,5,9,4,?,?,?,?,913,4,1233,7,1641,5,1841,9,2913,{ENTER},
2,5,2,3,5,7,4,5,9,?,?,?,836,3,1236,5,1644,7,1948,4,2276,9,2996,{ENTER},
2,5,3,5,8,3,6,6,4,1,?,?,1715,5,2003,8,2515,3,2851,6,3339,4,3707,1,5243,{ENTER},
2,5,4,2,6,5,4,7,8,1,7,?,1236,2,1492,6,2116,5,2484,4,2812,8,3196,1,3476,7,4316,{ENTER},
2,5,5,8,1,3,4,8,5,2,7,9,1480,8,1760,4,2056,5,2352,2,5200,3,5520,8,5792,7,6072,9,6768,{ENTER},
2,5,6,2,6,5,8,4,?,?,?,?,1450,2,2458,6,2778,5,3114,8,3882,{ENTER},
2,5,7,2,8,6,1,5,9,?,?,?,903,2,1215,8,1815,6,2479,1,2871,9,3447,{ENTER},
2,5,8,1,2,4,3,6,8,5,?,?,1358,1,1566,2,1902,4,2270,3,2718,8,2966,5,3534,{ENTER},
2,5,9,6,8,5,1,7,9,3,4,?,1155,6,1635,8,2323,5,2643,1,2987,9,3379,3,3675,4,4347,{ENTER},
2,5,10,7,8,5,6,8,4,1,9,3,1233,7,2457,1,2929,4,3201,8,3593,6,4113,4,4985,7,5265,1,5569,9,6049,3,6953,{ENTER},
2,5,11,8,1,9,4,4,?,?,?,?,1307,8,1651,1,2043,9,2435,4,2803,{ENTER},
2,5,12,7,2,8,9,5,5,?,?,?,1052,7,1364,2,1708,8,1956,9,2244,5,2548,{ENTER},
2,5,13,6,9,3,4,6,8,1,?,?,911,6,1183,9,1487,3,1775,4,2103,8,2423,1,2743,{ENTER},
2,5,14,9,2,5,8,7,6,1,3,?,1300,9,1692,2,2156,6,2436,8,2756,5,3124,1,5604,3,6788,{ENTER},
2,5,15,3,6,7,9,8,5,4,1,8,585,3,873,6,1481,7,2113,9,2545,5,2905,4,7897,1,8025,8,8617,{ENTER},
2,6,1,4,7,5,9,4,?,?,?,?,2368,4,2784,7,3424,5,3720,8,6568,{ENTER},
2,6,2,3,5,7,4,5,9,?,?,?,819,3,1347,5,2107,7,2611,4,2987,9,3803,{ENTER},
2,6,3,5,8,3,6,6,4,1,?,?,4701,5,5685,3,6301,6,7564,8,8780,4,9276,1,9548,{ENTER},
2,6,4,2,6,5,4,7,8,1,7,?,18,2,506,6,770,5,1578,4,4146,8,4410,1,4682,7,5578,{ENTER},
2,6,5,8,1,3,4,8,5,2,7,9,1167,8,1647,1,2487,3,2831,4,3207,5,6054,7,6494,1,6678,9,7238,{ENTER},
2,6,6,2,6,5,8,4,?,?,?,?,2477,2,2797,6,3469,5,3653,8,4149,{ENTER},
2,6,7,2,8,6,1,5,9,?,?,?,4160,2,4480,8,4824,6,5344,1,5520,9,6040,{ENTER},
2,6,8,1,2,4,3,6,8,5,?,?,1376,1,1736,2,2168,4,3200,3,3680,8,4280,5,4640,{ENTER},
2,6,9,6,8,5,1,7,9,3,4,?,1449,6,2169,8,6249,1,7625,5,9201,9,10289,4,10681,{ENTER},
2,6,10,7,8,5,6,8,4,1,9,3,4219,1,4923,5,5443,4,5803,6,7859,8,11755,1,12011,3,12307,{ENTER},
2,6,11,8,1,9,4,4,?,?,?,?,1690,8,2098,1,2858,9,3050,4,3410,{ENTER},
2,6,12,7,2,8,9,5,5,?,?,?,1506,7,1746,2,2954,8,3202,9,3562,5,3834,{ENTER},
2,6,13,6,9,3,4,6,8,1,?,?,3642,6,4610,9,5242,3,6138,8,6378,4,6770,1,7090,{ENTER},
2,6,14,9,2,5,8,7,6,1,3,?,1435,9,2459,2,5170,8,5818,5,6186,6,7002,1,7290,3,7642,{ENTER},
2,6,15,3,6,7,9,8,5,4,1,8,2446,3,3086,6,3550,7,4046,9,5414,5,6438,1,8718,4,9638,8,10078,{ENTER},
2,7,1,4,7,5,9,4,?,?,?,?,2686,4,2878,7,3446,5,4637,1,5101,{ENTER},
2,7,2,3,5,7,4,5,9,?,?,?,731,3,1475,5,1827,7,2083,4,2363,1,3339,{ENTER},
2,7,3,5,8,3,6,6,4,1,?,?,1079,5,2023,8,2647,3,2847,6,3455,4,3671,1,4055,{ENTER},
2,7,4,2,6,5,4,7,8,1,7,?,1031,2,1239,6,2063,5,2463,4,2751,8,3407,1,3679,7,4119,{ENTER},
2,7,5,8,1,3,4,8,5,2,7,9,2127,8,2751,1,2975,5,3375,4,3799,3,4775,2,5087,7,6519,1,6847,{ENTER},
2,7,6,2,6,5,8,4,?,?,?,?,3174,2,3421,6,3877,5,4085,8,4413,{ENTER},
2,7,7,2,8,6,1,5,9,?,?,?,1101,2,1365,8,2405,6,3021,1,3301,9,3533,{ENTER},
2,7,8,1,2,4,3,6,8,5,?,?,1818,1,2010,2,2714,4,3898,8,4306,3,4610,5,4970,{ENTER},
2,7,9,6,8,5,1,7,9,3,4,?,2244,2,2540,8,3020,6,3788,5,4212,1,4668,8,5388,3,5708,4,5980,{ENTER},
2,7,10,7,8,5,6,8,4,1,9,3,1210,7,1434,8,2050,6,2458,5,2914,4,3602,9,3962,3,4242,{ENTER},
2,7,11,8,1,9,4,4,?,?,?,?,1452,8,2076,1,3020,9,3476,4,3764,{ENTER},
2,7,12,7,2,8,9,5,5,?,?,?,1029,7,1237,8,3701,2,4437,8,4677,9,4893,5,5245,{ENTER},
2,7,13,6,9,3,4,6,8,1,?,?,2261,6,2509,9,3573,3,3933,4,4397,8,5165,1,5501,{ENTER},
2,7,14,9,2,5,8,7,6,1,3,?,1116,9,1908,2,2116,5,2580,8,2964,6,3652,1,4268,3,4588,{ENTER},
2,7,15,3,6,7,9,8,5,4,1,8,802,3,1722,8,2146,6,2674,7,3890,9,4226,5,4578,4,4874,8,5298,{ENTER},
2,8,1,4,7,5,9,4,?,?,?,?,496,4,872,7,1264,5,1496,9,2104,{ENTER},
2,8,2,3,5,7,4,5,9,?,?,?,548,3,1020,5,1428,7,1756,4,2052,9,2876,{ENTER},
2,8,3,5,8,3,6,6,4,1,?,?,708,5,932,8,1636,3,2212,6,2588,1,3156,{ENTER},
2,8,4,2,6,5,4,7,8,1,7,?,249,2,505,6,2041,8,2296,4,3096,1,3328,7,3784,{ENTER},
2,8,5,8,1,3,4,8,5,2,7,9,316,1,3868,1,4756,4,6852,4,7516,3,8540,9,8956,{ENTER},
2,8,6,2,6,5,8,4,?,?,?,?,1687,2,1895,6,2319,5,2583,8,3063,{ENTER},
2,8,7,2,8,6,1,5,9,?,?,?,571,2,931,8,1643,6,2147,1,2435,9,3083,{ENTER},
2,8,8,1,2,4,3,6,8,5,?,?,370,1,594,2,1138,4,1722,3,2138,8,2410,5,2810,{ENTER},
2,8,9,6,8,5,1,7,9,3,4,?,333,6,661,8,1437,5,2548,8,2932,3,3300,4,4308,4,4708,{ENTER},
2,8,10,7,8,5,6,8,4,1,9,3,116,7,348,8,1188,6,1684,4,1988,9,2676,3,3140,{ENTER},
2,8,11,8,1,9,4,4,?,?,?,?,982,9,2678,1,3838,9,4294,4,4934,{ENTER},
2,8,12,7,2,8,9,5,5,?,?,?,825,7,1097,2,1513,8,1721,9,1977,5,2625,{ENTER},
2,8,13,6,9,3,4,6,8,1,?,?,346,6,642,9,1154,3,1618,4,2226,8,2554,1,2946,{ENTER},
2,8,14,9,2,5,8,7,6,1,3,?,646,9,918,8,6405,8,7349,6,7981,0,8805,3,9469,{ENTER},
2,8,15,3,6,7,9,8,5,4,1,8,184,3,520,6,1216,7,3704,8,3936,4,4136,1,4528,{ENTER},
2,9,1,4,7,5,9,4,?,?,?,?,1503,4,1863,7,2639,5,2991,9,4263,{ENTER},
2,9,2,3,5,7,4,5,9,?,?,?,876,3,1628,5,3020,7,3484,4,3788,9,5004,{ENTER},
2,9,3,5,8,3,6,6,4,1,?,?,1037,5,1437,8,2165,6,9213,3,9629,4,9829,1,10549,{ENTER},
2,9,4,2,6,5,4,7,8,1,7,?,1795,2,2315,6,3971,5,5987,4,10603,1,11139,8,11323,7,12339,{ENTER},
2,9,5,8,1,3,4,8,5,2,7,9,924,8,1372,1,2324,3,3340,4,4220,7,6052,5,6380,2,7276,9,8276,{ENTER},
2,9,6,2,6,5,8,4,?,?,?,?,1441,2,2265,6,2465,5,2681,8,3593,{ENTER},
2,9,7,2,8,6,1,5,9,?,?,?,331,2,1531,8,2139,6,2483,1,2795,9,3779,{ENTER},
2,9,8,1,2,4,3,6,8,5,?,?,1846,1,2238,2,2694,4,3446,8,3662,5,4590,{ENTER},
2,9,9,6,8,5,1,7,9,3,4,?,1184,6,1744,8,2512,1,3632,9,5112,4,5448,3,6440,{ENTER},
2,9,10,7,8,5,6,8,4,1,9,3,1259,7,1907,8,5011,5,5571,6,5867,1,6163,4,6603,3,7547,{ENTER},
2,9,11,8,1,9,4,4,?,?,?,?,1152,8,1520,1,1952,9,2176,4,3064,{ENTER},
2,9,12,7,2,8,9,5,5,?,?,?,999,7,1359,8,2063,2,2903,9,3103,5,4143,{ENTER},
2,9,13,6,9,3,4,6,8,1,?,?,1155,6,1571,9,2059,3,2707,4,3091,8,3346,1,4026,{ENTER},
2,9,14,9,2,5,8,7,6,1,3,?,3812,9,4180,8,4684,2,4932,5,5884,6,6420,1,6684,3,7300,{ENTER},
2,9,15,3,6,7,9,8,5,4,1,8,835,3,1275,6,1827,7,4090,9,4402,4,4658,1,4930,8,5882,{ENTER},
3,10,1,4,7,5,9,4,?,?,?,?,1110,4,1518,7,2838,5,3030,9,4838,{ENTER},
3,10,2,3,5,7,4,5,9,?,?,?,1030,3,1470,5,1910,7,2686,4,2902,9,5750,{ENTER},
3,10,3,5,8,3,6,6,4,1,?,?,987,5,3426,3,3682,6,4458,4,4978,1,7026,{ENTER},
3,10,4,2,6,5,4,7,8,1,7,?,3124,2,3484,6,4492,5,5148,4,6396,8,6628,7,6780,1,8740,{ENTER},
3,10,5,8,1,3,4,8,5,2,7,9,797,8,2453,1,3333,3,3973,4,4221,5,4613,2,5349,7,5821,9,6645,{ENTER},
3,10,6,2,6,5,8,4,?,?,?,?,1562,2,2554,6,3154,5,3298,8,4282,{ENTER},
3,10,7,2,8,6,1,5,9,?,?,?,1609,2,2393,8,2849,6,3529,1,3689,9,4105,{ENTER},
3,10,8,1,2,4,3,6,8,5,?,?,1404,2,1900,3,2308,4,2692,8,3636,1,5692,{ENTER},
3,10,9,6,8,5,1,7,9,3,4,?,964,2,1428,6,1788,8,2572,5,5244,1,5628,4,5843,{ENTER},
3,10,10,7,8,5,6,8,4,1,9,3,1934,7,2718,5,4374,8,5070,1,7342,5,7510,3,8630,{ENTER},
3,10,11,8,1,9,4,4,?,?,?,?,1426,8,3042,9,3218,4,3498,{ENTER},
3,10,12,7,2,8,9,5,5,?,?,?,1175,7,1775,2,2383,8,4031,9,4183,5,4455,{ENTER},
3,10,13,6,9,3,4,6,8,1,?,?,2647,6,2863,9,3415,3,3663,4,4399,8,4591,1,4815,{ENTER},
3,10,14,9,2,5,8,7,6,1,3,?,1442,9,1690,2,3338,5,5050,4,6418,9,6538,3,10242,{ENTER},
3,10,15,3,6,7,9,8,5,4,1,8,1901,6,2349,7,3557,5,4461,4,5269,9,5445,8,6989,{ENTER},
3,11,1,4,7,5,9,4,?,?,?,?,1388,4,1644,7,1956,5,2172,9,2532,{ENTER},
3,11,2,3,5,7,4,5,9,?,?,?,537,3,761,5,1049,7,1737,4,1937,9,2249,{ENTER},
3,11,3,5,8,3,6,6,4,1,?,?,1136,5,1488,8,1944,3,2304,6,2584,4,2880,1,3160,{ENTER},
3,11,4,2,6,5,4,7,8,1,7,?,1156,2,1572,6,1988,5,2476,4,2764,8,3116,1,3428,7,3748,{ENTER},
3,11,5,8,1,3,4,8,5,2,7,9,746,8,1122,1,1482,3,1874,5,3418,2,3778,4,4026,7,4250,9,4578,{ENTER},
3,11,6,2,6,5,8,4,?,?,?,?,892,2,1188,6,1468,5,1684,8,2036,{ENTER},
3,11,7,2,8,6,1,5,9,?,?,?,708,2,1028,8,1396,6,1724,1,1948,9,2252,{ENTER},
3,11,8,1,2,4,3,6,8,5,?,?,936,1,1224,2,1544,3,5296,4,5488,8,5728,5,6320,{ENTER},
3,11,9,6,8,5,1,7,9,3,4,?,688,6,1056,8,1432,1,1752,5,2040,9,2384,3,2680,4,3000,{ENTER},
3,11,10,7,8,5,6,8,4,1,9,3,1203,7,1483,8,1883,6,4443,5,4739,4,8091,9,8451,3,8667,{ENTER},
3,11,11,8,1,9,4,4,?,?,?,?,1344,8,1688,1,1952,9,2240,4,2552,{ENTER},
3,11,12,7,2,8,9,5,5,?,?,?,1411,7,1843,2,2203,8,2483,9,2747,5,3059,{ENTER},
3,11,13,6,9,3,4,6,8,1,?,?,1033,6,1377,9,1721,4,2105,3,2417,8,2713,1,3025,{ENTER},
3,11,14,9,2,5,8,7,6,1,3,?,1116,9,1636,2,2188,5,2604,6,2940,8,3316,1,3652,3,3948,{ENTER},
3,11,15,3,6,7,9,8,5,4,1,8,2130,3,2667,6,3226,9,5266,7,8058,1,8402,5,8738,4,9442,8,9762,{ENTER},
3,2,1,4,7,5,9,4,?,?,?,?,1001,4,1209,7,1833,5,2033,9,2401,{ENTER},
3,2,2,3,5,7,4,5,9,?,?,?,1314,3,1650,5,2074,7,2290,4,2554,9,2994,{ENTER},
3,2,3,5,8,3,6,6,4,1,?,?,1097,5,1577,3,2433,3,2721,6,3473,4,4185,1,4497,{ENTER},
3,2,4,2,6,5,4,7,8,1,7,?,1585,2,1825,6,2073,5,2457,8,2921,1,3697,7,4345,{ENTER},
3,2,5,8,1,3,4,8,5,2,7,9,658,8,954,1,1266,3,1618,5,2530,2,2930,7,3386,1,3674,9,4386,{ENTER},
3,2,6,2,6,5,8,4,?,?,?,?,1388,2,1628,6,1988,5,2244,8,2708,{ENTER},
3,2,7,2,8,6,1,5,9,?,?,?,985,2,1257,8,1705,6,2177,1,2681,9,3057,{ENTER},
3,2,8,1,2,4,3,6,8,5,?,?,818,1,1194,2,2050,4,2450,3,2986,8,3202,5,3722,{ENTER},
3,2,9,6,8,5,1,7,9,3,4,?,863,6,1135,8,1471,1,2271,5,2791,9,6007,8,6247,4,6551,{ENTER},
3,2,10,7,8,5,6,8,4,1,9,3,761,7,977,8,1433,6,1713,5,2449,1,2681,9,5825,2,6129,3,6441,{ENTER},
3,2,11,8,1,9,4,4,?,?,?,?,1389,8,1621,1,1941,9,2189,4,2533,{ENTER},
3,2,12,7,2,8,9,5,5,?,?,?,561,7,873,2,1121,9,1377,8,8569,5,8801,{ENTER},
3,2,13,6,9,3,4,6,8,1,?,?,789,6,1093,9,1453,3,1917,4,2957,8,3293,1,3685,{ENTER},
3,2,14,9,2,5,8,7,6,1,3,?,637,9,1205,2,1925,8,2141,5,2757,6,5141,3,6965,1,7669,{ENTER},
3,2,15,3,6,7,9,8,5,4,1,8,577,3,817,6,1097,7,3089,4,4017,9,4241,8,5321,{ENTER},
3,3,1,4,7,5,9,4,?,?,?,?,181,4,277,7,589,5,973,9,1181,{ENTER},
3,3,2,3,5,7,4,5,9,?,?,?,261,9,2981,3,3829,5,4181,7,4461,6,4749,5,4981,{ENTER},
3,3,3,5,8,3,6,6,4,1,?,?,384,5,640,8,1496,6,2064,3,2432,1,2656,{ENTER},
3,3,4,2,6,5,4,7,8,1,7,?,98,2,458,6,730,5,2666,4,2954,8,3482,1,3730,{ENTER},
3,3,5,8,1,3,4,8,5,2,7,9,906,8,1154,1,2026,3,2890,4,3106,5,3386,2,4569,8,4625,9,4873,{ENTER},
3,3,6,2,6,5,8,4,?,?,?,?,1304,2,1896,6,2008,5,2288,8,2480,{ENTER},
3,3,7,2,8,6,1,5,9,?,?,?,102,2,470,8,750,6,1070,1,1494,9,1790,{ENTER},
3,3,8,1,2,4,3,6,8,5,?,?,728,1,832,2,896,4,1520,3,1952,8,2424,5,2640,{ENTER},
3,3,9,6,8,5,1,7,9,3,4,?,65,6,145,8,961,5,1361,1,2425,3,2481,4,2785,{ENTER},
3,3,10,7,8,5,6,8,4,1,9,3,313,7,425,8,1017,5,1057,6,2441,1,2657,4,2921,{ENTER},
3,3,11,8,1,9,4,4,?,?,?,?,1060,8,2228,9,2628,4,3228,{ENTER},
3,3,12,7,2,8,9,5,5,?,?,?,960,7,1056,2,1392,8,1856,9,2480,5,2720,{ENTER},
3,3,13,6,9,3,4,6,8,1,?,?,47,6,391,9,1015,3,1199,4,1615,8,2071,1,2343,{ENTER},
3,3,14,9,2,5,8,7,6,1,3,?,77,5,277,2,549,8,757,6,1461,1,1653,3,1893,{ENTER},
3,3,15,3,6,7,9,8,5,4,1,8,85,6,341,7,557,9,1293,5,1477,4,1765,8,2461,{ENTER},
3,4,1,4,7,5,9,4,?,?,?,?,2935,4,3191,7,3871,5,4415,9,4967,{ENTER},
3,4,2,3,5,7,4,5,9,?,?,?,1984,3,2312,5,2848,7,3616,4,3840,9,4400,{ENTER},
3,4,3,5,8,3,6,6,4,1,?,?,1164,5,1836,8,2484,3,2995,6,3387,4,3691,1,4187,{ENTER},
3,4,4,2,6,5,4,7,8,1,7,?,2680,2,3096,4,3480,5,3976,6,5576,2,6808,1,7048,8,7312,7,8120,{ENTER},
3,4,5,8,1,3,4,8,5,2,7,9,3556,8,3908,4,6428,3,8204,7,8604,9,10764,{ENTER},
3,4,6,2,6,5,8,4,?,?,?,?,1485,2,1845,6,2341,5,2949,8,3485,{ENTER},
3,4,7,2,8,6,1,5,9,?,?,?,1689,2,2033,6,2513,8,2937,1,3425,9,3913,{ENTER},
3,4,8,1,2,4,3,6,8,5,?,?,1234,1,1602,2,2426,4,3298,3,3730,8,4114,5,4706,{ENTER},
3,4,9,6,8,5,1,7,9,3,4,?,1920,6,2592,8,2944,5,3648,1,4048,9,4704,3,5048,4,5488,{ENTER},
3,4,10,7,8,5,6,8,4,1,9,3,6037,5,6325,6,7309,7,7605,8,8253,4,8997,1,9365,9,9845,3,10445,{ENTER},
3,4,11,8,1,9,4,4,?,?,?,?,1644,8,2476,1,3364,9,3596,4,4132,{ENTER},
3,4,12,7,2,8,9,5,5,?,?,?,2052,7,2412,2,3028,8,3332,9,3708,5,4204,{ENTER},
3,4,13,6,9,3,4,6,8,1,?,?,1190,6,1574,9,2350,3,2790,4,3294,8,3598,1,4086,{ENTER},
3,4,14,9,2,5,8,7,6,1,3,?,1738,9,2210,2,2594,5,3602,6,3994,8,4466,1,4762,3,5282,{ENTER},
3,4,15,3,6,7,9,8,5,4,1,8,1643,3,2107,6,3019,7,8603,9,8899,4,9627,5,10451,8,10891,{ENTER},
3,5,1,4,7,5,9,4,?,?,?,?,1091,4,2171,7,2371,5,2651,9,2923,{ENTER},
3,5,2,3,5,7,4,5,9,?,?,?,182,5,590,7,774,4,1118,9,1390,{ENTER},
3,5,3,5,8,3,6,6,4,1,?,?,944,5,1176,8,1616,3,1832,6,2328,4,2512,1,2720,{ENTER},
3,5,4,2,6,5,4,7,8,1,7,?,1966,2,2310,5,2630,6,2950,8,3222,4,3454,1,3750,7,4014,{ENTER},
3,5,5,8,1,3,4,8,5,2,7,9,871,8,1071,5,1335,1,1871,4,6031,2,6359,7,6711,3,7119,9,7607,{ENTER},
3,5,6,2,6,5,8,4,?,?,?,?,2169,2,2393,6,2577,5,2745,8,3001,{ENTER},
3,5,7,2,8,6,1,5,9,?,?,?,1241,2,1713,8,2553,6,3097,1,3409,9,3929,{ENTER},
3,5,8,1,2,4,3,6,8,5,?,?,1486,1,1677,2,1869,4,2301,3,2661,8,2845,5,3061,{ENTER},
3,5,9,6,8,5,1,7,9,3,4,?,951,6,1287,8,1503,5,1935,3,2367,1,2679,9,2927,4,3223,{ENTER},
3,5,10,7,8,5,6,8,4,1,9,3,1425,7,1713,8,2105,6,2657,5,2913,1,3153,4,4857,9,5121,3,5337,{ENTER},
3,5,11,8,1,9,4,4,?,?,?,?,7333,7,8709,6,9605,5,9804,1,9988,4,10212,{ENTER},
3,5,12,7,2,8,9,5,5,?,?,?,1462,7,1974,2,2998,5,7310,9,7534,8,7758,{ENTER},
3,5,13,6,9,3,4,6,8,1,?,?,1364,6,1644,8,1892,4,2396,3,2660,8,2956,1,3188,{ENTER},
3,5,14,9,2,5,8,7,6,1,3,?,407,9,567,8,1007,2,1183,5,2463,6,3015,1,3207,3,3423,{ENTER},
3,5,15,3,6,7,9,8,5,4,1,8,2512,3,2832,8,3136,6,4488,5,5048,1,5296,7,5480,8,5736,{ENTER},
3,6,1,4,7,5,9,4,?,?,?,?,534,4,718,7,1102,5,1414,9,2382,{ENTER},
3,6,2,3,5,7,4,5,9,?,?,?,529,3,873,5,1153,7,1537,4,1753,9,2473,{ENTER},
3,6,3,5,8,3,6,6,4,1,?,?,754,5,1178,8,1714,3,2114,6,2594,4,3066,1,3522,{ENTER},
3,6,4,2,6,5,4,7,8,1,7,?,1017,2,1625,6,2281,5,2569,4,3073,8,3449,1,3825,7,6081,{ENTER},
3,6,5,8,1,3,4,8,5,2,7,9,815,8,1167,1,1943,3,2167,4,2399,5,3343,2,5463,7,6135,9,7567,{ENTER},
3,6,6,2,6,5,8,4,?,?,?,?,1105,2,1377,6,1873,5,2161,8,3329,{ENTER},
3,6,7,2,8,6,1,5,9,?,?,?,811,2,1371,8,2523,6,3299,1,3611,9,4387,{ENTER},
3,6,8,1,2,4,3,6,8,5,?,?,758,1,1045,2,1677,4,1965,3,2573,8,3509,5,4421,{ENTER},
3,6,9,6,8,5,1,7,9,3,4,?,492,6,924,8,1660,5,2100,1,2532,9,2964,3,3308,4,3812,{ENTER},
3,6,10,7,8,5,6,8,4,1,9,3,536,7,696,8,1184,5,1568,6,2464,4,2864,1,3336,9,3696,3,4096,{ENTER},
3,6,11,8,1,9,4,4,?,?,?,?,204,8,532,1,1636,9,1956,4,2572,{ENTER},
3,6,12,7,2,8,9,5,5,?,?,?,717,7,1349,2,2117,8,2389,9,4309,5,5773,{ENTER},
3,6,13,6,9,3,4,6,8,1,?,?,297,6,441,9,921,3,1209,4,1769,8,2073,1,2593,{ENTER},
3,6,14,9,2,5,8,7,6,1,3,?,916,9,1212,2,3220,5,3932,8,4364,6,4820,1,5188,3,5484,{ENTER},
3,6,15,3,6,7,9,8,5,4,1,8,714,3,882,6,1442,7,1874,9,2298,5,6498,1,6698,4,7018,8,7770,{ENTER},
3,7,1,4,7,5,9,4,?,?,?,?,2187,4,2547,7,2882,5,3122,9,3778,{ENTER},
3,7,2,3,5,7,4,5,9,?,?,?,1140,3,1708,5,2116,7,2356,4,2668,9,3316,{ENTER},
3,7,3,5,8,3,6,6,4,1,?,?,3402,5,3842,8,4402,3,5082,6,5402,4,5634,1,5906,{ENTER},
3,7,4,2,6,5,4,7,8,1,7,?,1290,2,1578,6,2194,5,2554,4,3186,8,3594,1,3882,7,4474,{ENTER},
3,7,5,8,1,3,4,8,5,2,7,9,4179,8,4675,1,5195,3,6547,4,6907,5,7267,2,7643,7,7939,9,9331,{ENTER},
3,7,6,2,6,5,8,4,?,?,?,?,2736,2,3800,6,4104,5,4352,8,4920,{ENTER},
3,7,7,2,8,6,1,5,9,?,?,?,1885,2,2485,8,3093,6,3501,1,3885,9,5229,{ENTER},
3,7,8,1,2,4,3,6,8,5,?,?,1150,1,1566,2,2022,4,2518,3,2902,8,3118,5,3734,{ENTER},
3,7,9,6,8,5,1,7,9,3,4,?,15394,6,15810,3,19834,5,20514,8,21634,1,22018,3,22730,4,29770,{ENTER},
3,7,10,7,8,5,6,8,4,1,9,3,11407,7,11919,8,12591,5,13103,6,13703,4,13975,1,14647,9,15127,3,18039,{ENTER},
3,7,11,8,1,9,4,4,?,?,?,?,1818,8,2354,1,2850,9,3162,4,3738,{ENTER},
3,7,12,7,2,8,9,5,5,?,?,?,1235,7,1931,2,2491,8,2963,9,3275,5,4163,{ENTER},
3,7,13,6,9,3,4,6,8,1,?,?,1725,6,2077,9,2525,3,2933,4,3157,8,3477,1,5685,{ENTER},
3,7,14,9,2,5,8,7,6,1,3,?,1470,9,1862,2,2126,5,2406,8,2990,6,3366,1,3638,3,5574,{ENTER},
3,7,15,3,6,7,9,8,5,4,1,8,2250,3,2650,6,3162,7,3530,9,4866,5,5274,4,5618,1,5930,8,11762,{ENTER},
3,8,1,4,7,5,9,4,?,?,?,?,675,4,891,7,1107,5,1323,9,1571,{ENTER},
3,8,2,3,5,7,4,5,9,?,?,?,44,3,300,5,556,7,1116,4,1388,9,1812,{ENTER},
3,8,3,5,8,3,6,6,4,1,?,?,638,5,918,8,1238,3,1574,6,1902,4,2246,1,2582,{ENTER},
3,8,4,2,6,5,4,7,8,1,7,?,633,2,905,6,1201,5,1489,4,3417,1,3593,8,3761,7,4089,{ENTER},
3,8,5,8,1,3,4,8,5,2,7,9,617,8,921,1,1257,2,2441,3,3105,4,3313,5,3617,7,3929,9,4241,{ENTER},
3,8,6,2,6,5,8,4,?,?,?,?,751,2,911,6,1079,5,1279,8,1551,{ENTER},
3,8,7,2,8,6,1,5,9,?,?,?,531,2,795,8,1059,6,1299,1,1507,9,2611,{ENTER},
3,8,8,1,2,4,3,6,8,5,?,?,588,1,796,2,1012,4,1268,3,1740,8,1940,5,2188,{ENTER},
3,8,9,6,8,5,1,7,9,3,4,?,1367,6,1854,8,2406,5,3382,1,3902,9,4438,3,4886,4,5382,{ENTER},
3,8,10,7,8,5,6,8,4,1,9,3,892,7,1236,8,1588,6,1956,4,2300,5,2676,9,3084,3,4828,{ENTER},
3,8,11,8,1,9,4,4,?,?,?,?,700,8,900,1,1116,9,1308,4,1556,{ENTER},
3,8,12,7,2,8,9,5,5,?,?,?,661,7,1085,2,1477,8,1837,9,2245,5,2653,{ENTER},
3,8,13,6,9,3,4,6,8,1,?,?,763,6,1027,9,1299,3,1843,4,2059,8,2275,1,2643,{ENTER},
3,8,14,9,2,5,8,7,6,1,3,?,1475,9,1859,2,2219,5,2587,8,2947,6,3339,1,3683,3,4035,{ENTER},
3,8,15,3,6,7,9,8,5,4,1,8,1358,3,1766,6,2166,7,2550,9,3942,1,4694,4,4958,8,5278,{ENTER},
3,9,1,4,7,5,9,4,?,?,?,?,811,4,1787,7,2099,5,2587,9,3179,{ENTER},
3,9,2,3,5,7,4,5,9,?,?,?,662,3,1022,5,3166,7,3398,4,3870,9,4646,{ENTER},
3,9,3,5,8,3,6,6,4,1,?,?,592,5,840,8,1432,3,1776,6,2096,4,2328,1,2903,{ENTER},
3,9,4,2,6,5,4,7,8,1,7,?,701,2,1045,6,1413,5,1717,4,2133,8,2421,1,2749,7,4069,{ENTER},
3,9,5,8,1,3,4,8,5,2,7,9,1263,8,1607,1,2039,3,2623,4,3463,5,3831,2,4983,7,5295,9,7911,{ENTER},
3,9,6,2,6,5,8,4,?,?,?,?,1819,2,2107,6,2347,5,2539,8,3187,{ENTER},
3,9,7,2,8,6,1,5,9,?,?,?,1415,2,2015,8,2295,6,2567,1,3127,9,3487,{ENTER},
3,9,8,1,2,4,3,6,8,5,?,?,2551,1,2799,2,3039,4,3391,3,3703,8,3927,5,4479,{ENTER},
3,9,9,6,8,5,1,7,9,3,4,?,1180,6,1516,8,1836,5,2116,1,2372,3,2660,9,2940,4,3780,{ENTER},
3,9,10,7,8,5,6,8,4,1,9,3,1649,7,2137,5,2473,6,4321,4,4657,1,5193,3,5633,9,6153,{ENTER},
3,9,11,8,1,9,4,4,?,?,?,?,763,8,1011,1,1283,9,1531,4,2019,{ENTER},
3,9,12,7,2,8,9,5,5,?,?,?,458,7,922,2,1322,8,1866,9,2122,5,3018,{ENTER},
3,9,13,6,9,3,4,6,8,1,?,?,938,6,1194,9,1922,3,5058,8,5274,4,5498,1,6314,{ENTER},
3,9,14,9,2,5,8,7,6,1,3,?,409,9,873,2,1561,8,1881,5,2105,6,2665,1,3321,3,5121,{ENTER},
3,9,15,3,6,7,9,8,5,4,1,8,743,3,1007,6,1479,7,1847,9,6287,5,6583,4,6887,1,7199,8,7927,{ENTER},
4,10,1,4,7,5,9,4,?,?,?,?,2150,4,2678,7,3070,5,3614,9,4054,{ENTER},
4,10,2,3,5,7,4,5,9,?,?,?,2950,3,3598,7,4262,4,4606,5,5150,9,5950,{ENTER},
4,10,3,5,8,3,6,6,4,1,?,?,2779,5,3619,8,6027,3,6411,4,6771,1,7627,{ENTER},
4,10,4,2,6,5,4,7,8,1,7,?,2079,2,3663,5,5167,6,6007,4,6903,1,7799,7,9471,{ENTER},
4,10,5,8,1,3,4,8,5,2,7,9,2090,8,2706,4,3538,1,4034,2,6098,7,6506,4,7922,9,8634,{ENTER},
4,10,6,2,6,5,8,4,?,?,?,?,2465,2,3593,5,3993,6,4361,8,4985,{ENTER},
4,10,7,2,8,6,1,5,9,?,?,?,1444,2,3067,8,3644,6,4267,1,4955,9,5515,{ENTER},
4,10,8,1,2,4,3,6,8,5,?,?,1936,1,3136,2,4096,4,4720,3,5344,8,5784,5,6384,{ENTER},
4,10,9,6,8,5,1,7,9,3,4,?,2341,6,3205,8,3957,1,4805,5,5605,9,6245,4,6901,{ENTER},
4,10,10,7,8,5,6,8,4,1,9,3,6940,7,8380,8,10084,4,10756,5,11356,1,11740,3,12340,{ENTER},
4,10,11,8,1,9,4,4,?,?,?,?,1546,8,2066,1,3298,9,4010,4,4697,{ENTER},
4,10,12,7,2,8,9,5,5,?,?,?,1822,7,2582,2,4214,8,4614,9,5270,5,6254,{ENTER},
4,10,13,6,9,3,4,6,8,1,?,?,1511,6,2119,9,3023,3,3327,4,4023,8,4431,1,5399,{ENTER},
4,10,14,9,2,5,8,7,6,1,3,?,3642,8,4866,2,5770,6,6602,1,7202,3,8018,{ENTER},
4,10,15,3,6,7,9,8,5,4,1,8,9654,7,13221,8,13901,1,14381,2,14981,3,15741,8,16293,{ENTER},
4,11,1,4,7,5,9,4,?,?,?,?,1200,4,1656,7,2376,5,2744,9,3512,{ENTER},
4,11,2,3,5,7,4,5,9,?,?,?,1572,3,2132,5,2660,7,3228,4,3820,9,4636,{ENTER},
4,11,3,5,8,3,6,6,4,1,?,?,1886,5,2174,8,2742,3,3046,6,3318,4,3814,1,4646,{ENTER},
4,11,4,2,6,5,4,7,8,1,7,?,2041,2,3696,6,4361,5,5904,4,6504,8,6880,7,7280,1,8144,{ENTER},
4,11,5,8,1,3,4,8,5,2,7,9,998,8,1510,1,2054,3,2822,4,3446,7,4318,2,5334,9,9990,{ENTER},
4,11,6,2,6,5,8,4,?,?,?,?,1873,2,2377,6,2760,5,3056,8,3584,{ENTER},
4,11,7,2,8,6,1,5,9,?,?,?,1170,2,1546,8,2090,6,2434,1,2730,9,3338,{ENTER},
4,11,8,1,2,4,3,6,8,5,?,?,1174,1,1486,2,1854,4,2278,3,2702,8,3046,5,3694,{ENTER},
4,11,9,6,8,5,1,7,9,3,4,?,1605,6,2157,8,2645,1,3005,5,3453,3,3853,4,5101,{ENTER},
4,11,10,7,8,5,6,8,4,1,9,3,1262,7,1598,8,2262,4,3038,6,4590,9,4822,1,5166,4,5510,3,6534,{ENTER},
4,11,11,8,1,9,4,4,?,?,?,?,1194,8,1721,1,2081,9,2417,4,3170,{ENTER},
4,11,12,7,2,8,9,5,5,?,?,?,995,7,1379,2,1891,8,3179,5,3483,9,6547,{ENTER},
4,11,13,6,9,3,4,6,8,1,?,?,1839,6,2295,9,2775,3,3335,4,3703,8,4111,1,5111,{ENTER},
4,11,14,9,2,5,8,7,6,1,3,?,1457,9,2073,5,5481,5,5977,8,6697,6,7121,1,7505,{ENTER},
4,11,15,3,6,7,9,8,5,4,1,8,1324,3,2044,6,2764,7,3676,4,4532,9,5116,3,5628,8,6572,{ENTER},
4,3,1,4,7,5,9,4,?,?,?,?,1288,4,1520,7,2320,5,3000,9,3816,{ENTER},
4,3,2,3,5,7,4,5,9,?,?,?,1193,3,1537,5,1841,7,2329,4,2665,9,4065,{ENTER},
4,3,3,5,8,3,6,6,4,1,?,?,1453,5,1837,8,2469,3,3005,6,3349,4,3797,1,5629,{ENTER},
4,3,4,2,6,5,4,7,8,1,7,?,2440,2,5112,6,5368,5,5656,4,6456,8,6680,1,6872,7,8328,{ENTER},
4,3,5,8,1,3,4,8,5,2,7,9,1486,8,1742,1,2438,3,2654,4,2822,5,3366,7,3766,9,5486,{ENTER},
4,3,6,2,6,5,8,4,?,?,?,?,1483,2,2379,6,2755,5,2923,8,3707,{ENTER},
4,3,7,2,8,6,1,5,9,?,?,?,1273,2,1433,8,1897,6,2233,1,2513,9,3329,{ENTER},
4,3,8,1,2,4,3,6,8,5,?,?,1133,1,1309,2,3117,4,3365,3,3949,8,4261,5,5309,{ENTER},
4,3,9,6,8,5,1,7,9,3,4,?,1198,6,2318,8,2654,5,3278,1,3598,9,4102,3,4318,4,5558,{ENTER},
4,3,10,7,8,5,6,8,4,1,9,3,1470,7,1702,8,2158,4,3438,6,4206,9,4958,1,5478,3,6406,{ENTER},
4,3,11,8,1,9,4,4,?,?,?,?,1277,8,1741,1,2101,9,2525,4,2957,{ENTER},
4,3,12,7,2,8,9,5,5,?,?,?,1257,7,1537,2,2537,8,2737,9,2881,5,3089,{ENTER},
4,3,13,6,9,3,4,6,8,1,?,?,2736,6,2888,9,3608,3,3800,4,4056,8,4320,1,4904,{ENTER},
4,3,14,9,2,5,8,7,6,1,3,?,1674,9,2410,2,3186,5,3570,8,3882,6,4330,1,4642,3,5754,{ENTER},
4,3,15,3,6,7,9,8,5,4,1,8,1226,3,1586,6,1882,9,2362,7,2770,4,3042,5,4410,1,4546,8,6410,{ENTER},
4,4,1,4,7,5,9,4,?,?,?,?,1058,4,2370,7,3122,5,3746,9,4402,{ENTER},
4,4,2,3,5,7,4,5,9,?,?,?,1323,3,2771,5,3427,7,3651,4,4059,9,4619,{ENTER},
4,4,3,5,8,3,6,6,4,1,?,?,2121,3,3081,5,3377,8,3649,6,4777,4,5065,1,5657,{ENTER},
4,4,4,2,6,5,4,7,8,1,7,?,742,2,1510,6,2877,5,3941,4,4477,8,6029,1,6277,7,9429,{ENTER},
4,4,5,8,1,3,4,8,5,2,7,9,907,8,2155,1,4043,4,7251,5,9867,3,10051,9,10507,{ENTER},
4,4,6,2,6,5,8,4,?,?,?,?,1440,2,2400,6,3336,5,3712,8,4120,{ENTER},
4,4,7,2,8,6,1,5,9,?,?,?,1101,2,1661,8,2245,6,2781,1,3029,9,3477,{ENTER},
4,4,8,1,2,4,3,6,8,5,?,?,1187,1,1363,2,2083,4,2347,3,3115,8,4291,5,4763,{ENTER},
4,4,9,6,8,5,1,7,9,3,4,?,3543,6,3735,8,4911,5,5263,3,6119,9,6735,2,6959,4,9959,{ENTER},
4,4,10,7,8,5,6,8,4,1,9,3,1863,7,2783,8,3655,6,4559,3,5615,5,5927,4,6823,1,7047,3,8294,{ENTER},
4,4,11,8,1,9,4,4,?,?,?,?,995,8,1283,1,2427,9,2547,4,2907,{ENTER},
4,4,12,7,2,8,9,5,5,?,?,?,936,7,1328,2,3560,8,4560,9,4944,5,5664,{ENTER},
4,4,13,6,9,3,4,6,8,1,?,?,1856,8,2464,6,3112,3,3312,4,3784,8,3920,1,4648,{ENTER},
4,4,14,9,2,5,8,7,6,1,3,?,3322,9,4410,2,6858,5,7450,8,8514,6,8690,1,9562,{ENTER},
4,4,15,3,6,7,9,8,5,4,1,8,2680,3,3208,6,4832,7,5440,9,7224,5,8064,4,8968,1,9672,8,10704,{ENTER},
4,5,1,4,7,5,9,4,?,?,?,?,1938,4,2170,7,2466,5,2690,9,3402,{ENTER},
4,5,2,3,5,7,4,5,9,?,?,?,635,3,979,5,1283,7,1531,4,1803,9,2651,{ENTER},
4,5,3,5,8,3,6,6,4,1,?,?,683,5,931,8,1323,3,1756,6,2076,4,2515,1,3539,{ENTER},
4,5,4,2,6,5,4,7,8,1,7,?,1184,2,1464,5,1656,6,1952,4,2176,8,2496,7,4472,{ENTER},
4,5,5,8,1,3,4,8,5,2,7,9,627,8,1042,3,2267,4,3883,5,4362,2,6810,1,7218,8,7594,9,8354,{ENTER},
4,5,6,2,6,5,8,4,?,?,?,?,1653,2,1885,6,2405,5,2637,8,3317,{ENTER},
4,5,7,2,8,6,1,5,9,?,?,?,497,2,745,6,1025,8,1313,1,1521,9,2041,{ENTER},
4,5,8,1,2,4,3,6,8,5,?,?,538,1,858,2,1162,4,1954,3,2314,8,2554,5,3906,{ENTER},
4,5,9,6,8,5,1,7,9,3,4,?,458,6,850,8,1242,1,1482,5,1730,9,1994,3,2378,4,3458,{ENTER},
4,5,10,7,8,5,6,8,4,1,9,3,429,7,821,8,1141,5,1389,6,1701,4,1949,1,2373,9,2653,3,3405,{ENTER},
4,5,11,8,1,9,4,4,?,?,?,?,749,8,1053,1,1285,9,1509,4,3741,{ENTER},
4,5,12,7,2,8,9,5,5,?,?,?,194,7,642,2,914,8,1098,9,1274,5,2098,{ENTER},
4,5,13,6,9,3,4,6,8,1,?,?,502,6,710,9,974,3,1262,4,1494,8,1862,1,3933,{ENTER},
4,5,14,9,2,5,8,7,6,1,3,?,585,9,833,2,1089,5,1313,8,1529,6,1793,1,2057,3,2697,{ENTER},
4,5,15,3,6,7,9,8,5,4,1,8,694,3,950,6,1214,7,1910,9,4686,4,4910,5,5118,1,5886,8,6414,{ENTER},
4,6,1,4,7,5,9,4,?,?,?,?,509,4,909,7,1293,5,1661,9,2101,{ENTER},
4,6,2,3,5,7,4,5,9,?,?,?,688,3,1056,5,1408,7,1936,4,2384,9,3008,{ENTER},
4,6,3,5,8,3,6,6,4,1,?,?,263,5,519,8,991,3,1351,6,1767,4,2135,1,2735,{ENTER},
4,6,4,2,6,5,4,7,8,1,7,?,132,2,468,6,876,5,1364,4,1652,8,2012,1,2340,7,2844,{ENTER},
4,6,5,8,1,3,4,8,5,2,7,9,287,1,687,3,967,5,1711,4,5399,1,6263,9,7023,{ENTER},
4,6,6,2,6,5,8,4,?,?,?,?,1440,2,1864,6,2616,5,2864,8,3496,{ENTER},
4,6,7,2,8,6,1,5,9,?,?,?,534,2,1006,8,1350,6,2006,1,2414,9,2878,{ENTER},
4,6,8,1,2,4,3,6,8,5,?,?,331,1,651,2,947,4,1579,3,2099,8,2315,5,3371,{ENTER},
4,6,9,6,8,5,1,7,9,3,4,?,435,6,723,8,963,5,1531,1,1947,9,2427,3,2731,4,3211,{ENTER},
4,6,10,7,8,5,6,8,4,1,9,3,877,7,1341,6,1949,8,2165,5,2789,4,3093,1,3453,9,3789,3,4141,{ENTER},
4,6,11,8,1,9,4,4,?,?,?,?,840,8,1104,1,1544,9,2056,4,2312,{ENTER},
4,6,12,7,2,8,9,5,5,?,?,?,589,7,957,2,1373,8,2781,9,3045,5,3477,{ENTER},
4,6,13,6,9,3,4,6,8,1,?,?,917,6,1284,9,2076,3,2636,4,2892,8,3196,1,3484,{ENTER},
4,6,14,9,2,5,8,7,6,1,3,?,547,9,915,2,1251,5,1875,8,2259,6,3139,1,3539,3,5467,{ENTER},
4,6,15,3,6,7,9,8,5,4,1,8,805,3,1213,6,1893,7,2373,9,3013,5,3268,4,3741,1,4020,8,4436,{ENTER},
4,7,1,4,7,5,9,4,?,?,?,?,1451,4,1787,7,2091,5,2323,9,2883,{ENTER},
4,7,2,3,5,7,4,5,9,?,?,?,3925,3,4221,4,4661,7,4973,9,7621,5,8461,{ENTER},
4,7,3,5,8,3,6,6,4,1,?,?,399,5,663,8,1431,3,1655,6,1927,4,2159,1,3255,{ENTER},
4,7,4,2,6,5,4,7,8,1,7,?,799,2,1047,5,1271,6,1567,4,2215,8,2455,1,2679,7,4791,{ENTER},
4,7,5,8,1,3,4,8,5,2,7,9,1007,8,1623,1,1959,3,2311,4,2639,7,8927,8,9335,9,11422,{ENTER},
4,7,6,2,6,5,8,4,?,?,?,?,1664,2,1920,6,2104,5,2304,8,2976,{ENTER},
4,7,7,2,8,6,1,5,9,?,?,?,1073,2,1361,8,1633,6,2945,1,3233,9,4665,{ENTER},
4,7,8,1,2,4,3,6,8,5,?,?,730,1,953,2,1234,4,1681,3,2057,8,2273,5,3377,{ENTER},
4,7,9,6,8,5,1,7,9,3,4,?,2045,6,2341,8,2637,1,2909,5,4725,9,5909,1,6109,4,6613,{ENTER},
4,7,10,7,8,5,6,8,4,1,9,3,2008,7,2544,8,3320,4,3759,6,4072,5,4343,1,4655,3,5439,{ENTER},
4,7,11,8,1,9,4,4,?,?,?,?,1254,8,1558,1,2062,9,2270,4,3126,{ENTER},
4,7,12,7,2,8,9,5,5,?,?,?,1211,7,1531,2,1835,8,2043,9,2259,5,2931,{ENTER},
4,7,13,6,9,3,4,6,8,1,?,?,1018,6,1498,9,2041,3,2617,4,2993,8,3289,1,5841,{ENTER},
4,7,14,9,2,5,8,7,6,1,3,?,2828,6,3108,9,3452,8,3756,1,4076,2,4748,6,4964,3,7084,{ENTER},
4,7,15,3,6,7,9,8,5,4,1,8,1078,3,1415,6,1918,8,2302,9,3054,4,3662,1,3918,8,6054,{ENTER},
4,8,1,4,7,5,9,4,?,?,?,?,1212,4,1940,7,2348,5,2884,9,3388,{ENTER},
4,8,2,3,5,7,4,5,9,?,?,?,735,3,1159,5,1591,7,2319,4,3215,9,4087,{ENTER},
4,8,3,5,8,3,6,6,4,1,?,?,1652,5,2307,3,3483,6,4435,4,4859,1,5811,{ENTER},
4,8,4,2,6,5,4,7,8,1,7,?,3160,3,3472,4,4024,6,5488,1,6120,7,6600,{ENTER},
4,8,5,8,1,3,4,8,5,2,7,9,838,1,1373,3,1806,4,2389,5,3973,2,4653,7,5397,9,6045,{ENTER},
4,8,6,2,6,5,8,4,?,?,?,?,1325,2,2877,6,3077,5,3517,8,4037,{ENTER},
4,8,7,2,8,6,1,5,9,?,?,?,1110,2,1782,8,2502,6,2974,1,3734,9,4294,{ENTER},
4,8,8,1,2,4,3,6,8,5,?,?,933,1,1237,2,1669,4,2029,3,2789,8,3189,5,3733,{ENTER},
4,8,9,6,8,5,1,7,9,3,4,?,979,6,1363,8,1755,5,2187,1,2931,9,3123,8,4067,4,4275,3,4819,{ENTER},
4,8,10,7,8,5,6,8,4,1,9,3,815,7,1023,8,2359,4,2775,1,4207,9,4567,6,4935,3,5471,{ENTER},
4,8,11,8,1,9,4,4,?,?,?,?,1429,8,1989,1,3221,9,3677,4,4229,{ENTER},
4,8,12,7,2,8,9,5,5,?,?,?,718,7,1262,2,2150,8,2366,9,2782,5,3318,{ENTER},
4,8,13,6,9,3,4,6,8,1,?,?,602,6,1058,9,1722,3,1930,4,2730,8,3218,1,3802,{ENTER},
4,8,14,9,2,5,8,7,6,1,3,?,1301,9,2181,2,3085,5,4293,6,4669,8,5549,1,5925,3,6581,{ENTER},
4,8,15,3,6,7,9,8,5,4,1,8,1321,3,2593,6,2777,5,3425,9,4361,8,4881,1,6297,{ENTER},
4,9,1,4,7,5,9,4,?,?,?,?,1220,4,1468,7,1908,5,2196,9,3036,{ENTER},
4,9,2,3,5,7,4,5,9,?,?,?,1012,3,1388,5,1740,7,2068,4,2428,9,2980,{ENTER},
4,9,3,5,8,3,6,6,4,1,?,?,1789,5,2093,4,3229,3,3741,8,4629,5,5493,1,6125,{ENTER},
4,9,4,2,6,5,4,7,8,1,7,?,1001,2,1233,4,1497,6,1793,5,2009,8,2737,1,3033,7,3425,{ENTER},
4,9,5,8,1,3,4,8,5,2,7,9,964,8,1380,1,1620,5,1876,2,4468,4,4668,7,4948,9,5396,{ENTER},
4,9,6,2,6,5,8,4,?,?,?,?,3547,2,3859,5,4091,6,4307,5,4515,8,4915,{ENTER},
4,9,7,2,8,6,1,5,9,?,?,?,743,2,1015,8,1327,6,7271,6,7511,1,7679,9,8199,{ENTER},
4,9,8,1,2,4,3,6,8,5,?,?,721,1,969,2,1233,3,1737,4,2849,8,3065,5,3633,{ENTER},
4,9,9,6,8,5,1,7,9,3,4,?,240,6,1552,8,1912,5,2432,1,3176,9,3568,3,3880,4,4592,{ENTER},
4,9,10,7,8,5,6,8,4,1,9,3,1027,7,1291,8,1947,5,2467,6,4234,4,5042,1,5506,9,5962,3,6434,{ENTER},
4,9,11,8,1,9,4,4,?,?,?,?,1023,8,1367,1,1783,9,2055,4,2375,{ENTER},
4,9,12,7,2,8,9,5,5,?,?,?,1497,7,1729,8,2025,2,2289,9,2521,5,2905,{ENTER},
4,9,13,6,9,3,4,6,8,1,?,?,1295,6,1551,8,1782,9,2310,3,5638,4,7718,9,7846,1,8278,{ENTER},
4,9,14,9,2,5,8,7,6,1,3,?,462,9,646,8,918,2,1126,5,1726,6,3598,8,3686,1,4038,3,4638,{ENTER},
4,9,15,3,6,7,9,8,5,4,1,8,653,3,860,6,2116,7,6556,9,7172,4,8580,7,8652,8,9244,{ENTER},
5,10,1,4,7,5,9,4,?,?,?,?,1381,4,1669,7,1957,5,2237,9,3181,{ENTER},
5,10,2,3,5,7,4,5,9,?,?,?,808,3,1464,5,2192,7,2496,4,2800,9,3592,{ENTER},
5,10,3,5,8,3,6,6,4,1,?,?,1894,3,2214,5,3358,8,4166,6,4470,4,4870,1,5598,{ENTER},
5,10,4,2,6,5,4,7,8,1,7,?,2978,2,3738,6,4602,5,5122,8,10114,7,10282,4,10410,1,11090,{ENTER},
5,10,5,8,1,3,4,8,5,2,7,9,1700,2,1964,8,2364,4,2708,7,3468,9,3900,3,4068,1,4948,{ENTER},
5,10,6,2,6,5,8,4,?,?,?,?,1806,2,1974,6,2174,5,2614,8,3366,{ENTER},
5,10,7,2,8,6,1,5,9,?,?,?,951,2,1135,8,1463,6,1927,1,2223,9,2999,{ENTER},
5,10,8,1,2,4,3,6,8,5,?,?,313,1,665,2,1105,4,1425,3,1857,8,2241,5,3097,{ENTER},
5,10,9,6,8,5,1,7,9,3,4,?,1169,2,1513,8,2017,1,2393,5,3569,9,3913,4,4777,3,5433,{ENTER},
5,10,10,7,8,5,6,8,4,1,9,3,1037,7,1365,8,5157,5,5693,6,7261,4,7837,3,7965,1,8117,9,8733,{ENTER},
5,10,11,8,1,9,4,4,?,?,?,?,2848,8,3632,1,3816,9,3928,4,4520,{ENTER},
5,10,12,7,2,8,9,5,5,?,?,?,726,7,1086,2,1318,8,1526,9,1846,5,2638,{ENTER},
5,10,13,6,9,3,4,6,8,1,?,?,374,6,950,9,2390,4,3774,3,5150,8,5358,1,5902,{ENTER},
5,10,14,9,2,5,8,7,6,1,3,?,551,9,831,8,1199,2,1503,6,2183,5,2639,3,3583,{ENTER},
5,10,15,3,6,7,9,8,5,4,1,8,452,3,668,6,1340,9,1916,5,2084,4,3700,3,4436,1,4548,8,5244,{ENTER},
5,11,1,4,7,5,9,4,?,?,?,?,1524,4,2596,7,2988,5,3740,9,4564,{ENTER},
5,11,2,3,5,7,4,5,9,?,?,?,1223,3,1495,5,2439,7,3159,4,3327,9,4103,{ENTER},
5,11,3,5,8,3,6,6,4,1,?,?,1600,5,2096,8,2688,6,3032,3,3320,4,3568,1,4752,{ENTER},
5,11,4,2,6,5,4,7,8,1,7,?,1087,2,1519,6,1751,5,2103,4,3015,8,3391,7,3719,1,8335,{ENTER},
5,11,5,8,1,3,4,8,5,2,7,9,1137,8,1465,4,1993,5,2521,3,3209,2,4113,1,4929,5,13689,{ENTER},
5,11,6,2,6,5,8,4,?,?,?,?,1528,6,6000,5,6184,8,6776,{ENTER},
5,11,7,2,8,6,1,5,9,?,?,?,1628,2,1884,8,2124,6,2436,1,2708,9,3380,{ENTER},
5,11,8,1,2,4,3,6,8,5,?,?,1056,1,1208,2,1528,4,2032,3,2352,8,2536,5,3136,{ENTER},
5,11,9,6,8,5,1,7,9,3,4,?,1460,6,2100,1,2340,5,2588,8,2812,9,4788,3,4948,4,5692,{ENTER},
5,11,10,7,8,5,6,8,4,1,9,3,904,7,1064,8,3704,1,6264,5,6384,6,6720,4,7344,1,7648,9,7896,3,8720,{ENTER},
5,11,11,8,1,9,4,4,?,?,?,?,1213,8,1685,1,2125,9,2333,4,3053,{ENTER},
5,11,12,7,2,8,9,5,5,?,?,?,1168,7,1568,2,2248,8,2360,9,2592,5,3496,{ENTER},
5,11,13,6,9,3,4,6,8,1,?,?,1971,6,2187,9,2627,3,3179,4,4019,8,4755,1,5355,{ENTER},
5,11,14,9,2,5,8,7,6,1,3,?,1288,9,1624,2,1888,5,2504,6,2992,8,3592,1,4128,3,5248,{ENTER},
5,11,15,3,6,7,9,8,5,4,1,8,1752,3,2024,9,2168,5,5112,4,6664,1,9288,9,9472,6,9640,8,10328,{ENTER},
5,3,1,4,7,5,9,4,?,?,?,?,790,4,1406,7,2062,5,2534,9,3174,{ENTER},
5,3,2,3,5,7,4,5,9,?,?,?,791,3,1735,5,2487,7,2791,4,3631,9,4990,{ENTER},
5,3,3,5,8,3,6,6,4,1,?,?,889,5,1433,8,2033,3,2393,6,2857,4,3193,1,4257,{ENTER},
5,3,4,2,6,5,4,7,8,1,7,?,865,2,1441,4,2081,6,2873,5,3481,8,3961,1,4385,7,6201,{ENTER},
5,3,5,8,1,3,4,8,5,2,7,9,714,8,1234,1,1826,3,2354,4,2794,5,3162,2,3570,7,3794,9,5746,{ENTER},
5,3,6,2,6,5,8,4,?,?,?,?,1587,2,1931,6,2259,5,2539,8,3347,{ENTER},
5,3,7,2,8,6,1,5,9,?,?,?,668,2,1060,8,1412,6,1788,1,2268,9,2964,{ENTER},
5,3,8,1,2,4,3,6,8,5,?,?,489,1,769,2,2561,4,3057,8,3561,3,3833,5,4393,{ENTER},
5,3,9,6,8,5,1,7,9,3,4,?,914,6,1266,5,1602,8,2066,1,2490,9,2986,3,3458,4,4930,{ENTER},
5,3,10,7,8,5,6,8,4,1,9,3,694,7,1102,8,1614,5,2302,6,5726,4,5990,9,7302,3,7950,{ENTER},
5,3,11,8,1,9,4,4,?,?,?,?,966,8,1326,1,1686,9,1926,4,2646,{ENTER},
5,3,12,7,2,8,9,5,5,?,?,?,435,7,843,2,1371,8,1595,9,1955,5,3171,{ENTER},
5,3,13,6,9,3,4,6,8,1,?,?,662,6,958,9,2270,4,2742,8,3782,1,4822,{ENTER},
5,3,14,9,2,5,8,7,6,1,3,?,845,9,1325,2,1981,5,2205,6,2501,8,2813,1,3149,3,4573,{ENTER},
5,3,15,3,6,7,9,8,5,4,1,8,857,3,1193,6,1641,7,2225,9,2689,4,3049,1,3352,8,4985,{ENTER},
5,4,1,4,7,5,9,4,?,?,?,?,925,4,1029,7,1117,5,1509,9,2293,{ENTER},
5,4,2,3,5,7,4,5,9,?,?,?,496,3,584,5,840,7,1312,4,1464,9,2272,{ENTER},
5,4,3,5,8,3,6,6,4,1,?,?,681,5,913,8,1169,6,1457,3,1921,4,2185,1,4345,{ENTER},
5,4,4,2,6,5,4,7,8,1,7,?,1093,2,1557,6,2469,5,2957,4,3397,7,3821,1,5581,7,6261,{ENTER},
5,4,5,8,1,3,4,8,5,2,7,9,2101,8,2453,5,2893,3,3253,1,5413,2,5989,5,6341,7,6509,9,7117,{ENTER},
5,4,6,2,6,5,8,4,?,?,?,?,998,2,1198,6,1342,5,1550,8,2110,{ENTER},
5,4,7,2,8,6,1,5,9,?,?,?,975,2,2071,8,2279,6,2463,1,2639,9,3247,{ENTER},
5,4,8,1,2,4,3,6,8,5,?,?,107,1,299,2,475,4,699,3,891,8,1083,5,2571,{ENTER},
5,4,9,6,8,5,1,7,9,3,4,?,72,6,336,8,536,5,744,1,936,9,1640,3,2480,4,4072,{ENTER},
5,4,10,7,8,5,6,8,4,1,9,3,977,7,1033,8,2017,5,2057,6,2353,4,3249,1,3385,9,3625,3,4689,{ENTER},
5,4,11,8,1,9,4,4,?,?,?,?,426,8,626,1,794,9,1163,4,1795,{ENTER},
5,4,12,7,2,8,9,5,5,?,?,?,538,7,778,2,994,8,1146,9,1322,5,1874,{ENTER},
5,4,13,6,9,3,4,6,8,1,?,?,1787,6,1971,9,2179,3,2387,4,2563,8,2779,1,3347,{ENTER},
5,4,14,9,2,5,8,7,6,1,3,?,1254,9,2062,2,2398,5,2814,8,3158,6,3510,1,3782,3,4238,{ENTER},
5,4,15,3,6,7,9,8,5,4,1,8,4840,9,5048,6,5256,5,5440,7,5648,4,5880,3,6680,1,6840,8,7256,{ENTER},
5,5,1,4,7,5,9,4,?,?,?,?,71,4,319,7,807,5,967,9,1559,{ENTER},
5,5,2,3,5,7,4,5,9,?,?,?,736,3,1024,5,1280,7,1448,4,1664,9,2008,{ENTER},
5,5,3,5,8,3,6,6,4,1,?,?,16,5,240,8,832,3,1096,6,1512,4,1712,1,2448,{ENTER},
5,5,4,2,6,5,4,7,8,1,7,?,434,2,610,6,1354,5,1594,4,2106,8,2954,1,3210,7,3562,{ENTER},
5,5,5,8,1,3,4,8,5,2,7,9,1152,8,1736,1,1936,2,2752,7,3160,5,3368,4,3584,9,4216,{ENTER},
5,5,6,2,6,5,8,4,?,?,?,?,1919,2,2119,6,2567,5,2743,8,3039,{ENTER},
5,5,7,2,8,6,1,5,9,?,?,?,569,2,1025,8,1281,6,1657,1,1857,9,2177,{ENTER},
5,5,8,1,2,4,3,6,8,5,?,?,906,1,1090,2,1330,4,1802,3,2202,8,2394,5,2722,{ENTER},
5,5,9,6,8,5,1,7,9,3,4,?,729,6,1033,8,1233,9,1905,1,2113,9,2697,3,2921,4,3225,{ENTER},
5,5,10,7,8,5,6,8,4,1,9,3,1348,7,1900,8,2492,4,3972,7,4220,8,5540,9,5868,1,6076,3,6468,{ENTER},
5,5,11,8,1,9,4,4,?,?,?,?,658,8,834,1,1066,9,1210,4,1498,{ENTER},
5,5,12,7,2,8,9,5,5,?,?,?,302,2,2398,8,2734,9,2958,5,3286,{ENTER},
5,5,13,6,9,3,4,6,8,1,?,?,853,6,1149,9,1645,8,2413,3,2797,4,2989,1,3797,{ENTER},
5,5,14,9,2,5,8,7,6,1,3,?,1393,9,1825,2,2097,5,2481,8,2777,6,3089,1,3369,3,3713,{ENTER},
5,5,15,3,6,7,9,8,5,4,1,8,2136,3,2744,5,3040,9,5720,5,6128,2,6760,4,6968,8,7432,{ENTER},
5,6,1,4,7,5,9,4,?,?,?,?,511,4,799,7,1127,5,1375,9,1767,{ENTER},
5,6,2,3,5,7,4,5,9,?,?,?,1839,3,2255,5,2559,7,2823,4,3191,9,4031,{ENTER},
5,6,3,5,8,3,6,6,4,1,?,?,1953,5,2609,8,3281,3,4057,4,4777,6,5193,1,5841,{ENTER},
5,6,4,2,6,5,4,7,8,1,7,?,1433,2,1953,6,2337,5,2833,4,3449,8,3857,1,4145,7,5561,{ENTER},
5,6,5,8,1,3,4,8,5,2,7,9,3009,8,3385,1,3889,3,4465,4,5097,7,5665,5,6241,9,6793,{ENTER},
5,6,6,2,6,5,8,4,?,?,?,?,874,2,1274,6,1762,5,2042,8,2578,{ENTER},
5,6,7,2,8,6,1,5,9,?,?,?,341,2,773,8,2885,6,3229,5,3477,1,3797,9,5261,{ENTER},
5,6,8,1,2,4,3,6,8,5,?,?,459,1,1083,2,1627,4,2155,3,2651,8,3035,5,3539,{ENTER},
5,6,9,6,8,5,1,7,9,3,4,?,544,6,2608,8,3680,1,5888,3,6704,4,7280,{ENTER},
5,6,10,7,8,5,6,8,4,1,9,3,612,7,1380,8,2500,5,4788,6,7100,4,7747,1,8067,3,8539,{ENTER},
5,6,11,8,1,9,4,4,?,?,?,?,1132,8,2020,1,2764,9,3068,4,3596,{ENTER},
5,6,12,7,2,8,9,5,5,?,?,?,694,7,1558,8,2294,2,2766,9,3006,5,3366,{ENTER},
5,6,13,6,9,3,4,6,8,1,?,?,570,6,1497,9,4217,8,4601,4,4953,1,5609,{ENTER},
5,6,14,9,2,5,8,7,6,1,3,?,773,9,5293,1,5629,5,6013,6,6341,2,6517,3,7525,{ENTER},
5,6,15,3,6,7,9,8,5,4,1,8,350,3,805,6,1406,7,3381,9,4085,4,5181,1,5733,8,6277,{ENTER},
5,7,1,4,7,5,9,4,?,?,?,?,786,4,1474,7,1882,5,2282,9,2914,{ENTER},
5,7,2,3,5,7,4,5,9,?,?,?,352,3,952,5,1896,7,2320,4,2800,9,3320,{ENTER},
5,7,3,5,8,3,6,6,4,1,?,?,519,5,1375,8,3231,3,6094,6,6358,4,6758,1,7758,{ENTER},
5,7,4,2,6,5,4,7,8,1,7,?,1076,2,1812,6,2324,8,3428,4,6316,2,7804,1,7948,7,9580,{ENTER},
5,7,5,8,1,3,4,8,5,2,7,9,2091,8,2498,1,2770,3,3362,2,3530,4,6738,8,6874,7,7746,9,11634,{ENTER},
5,7,6,2,6,5,8,4,?,?,?,?,906,2,1642,6,2194,5,2530,8,3114,{ENTER},
5,7,7,2,8,6,1,5,9,?,?,?,462,2,1198,8,1526,6,1910,1,2334,9,3342,{ENTER},
5,7,8,1,2,4,3,6,8,5,?,?,890,1,1050,2,1626,4,1754,3,2618,8,2770,5,6538,{ENTER},
5,7,9,6,8,5,1,7,9,3,4,?,746,6,1002,8,1418,5,1866,1,2538,9,2994,3,3378,4,4602,{ENTER},
5,7,10,7,8,5,6,8,4,1,9,3,414,7,534,8,950,5,1270,6,1902,4,2334,1,2790,9,3054,4,4638,{ENTER},
5,7,11,8,1,9,4,4,?,?,?,?,942,8,1358,1,2430,9,2830,4,3574,{ENTER},
5,7,12,7,2,8,9,5,5,?,?,?,506,7,1050,2,1986,8,2266,9,2690,5,3154,{ENTER},
5,7,13,6,9,3,4,6,8,1,?,?,959,6,2255,9,2919,3,3319,4,4031,8,4551,1,5191,{ENTER},
5,7,14,9,2,5,8,7,6,1,3,?,1395,2,1811,8,2851,6,3491,2,3819,1,4155,3,5275,{ENTER},
5,7,15,3,6,7,9,8,5,4,1,8,1261,3,1669,6,2061,7,2957,9,5389,1,5957,4,6317,8,7397,{ENTER},
5,8,1,4,7,5,9,4,?,?,?,?,1312,4,1464,7,2288,5,2328,9,3056,{ENTER},
5,8,2,3,5,7,4,5,9,?,?,?,1302,3,1766,5,2078,7,2446,4,3230,9,4030,{ENTER},
5,8,3,5,8,3,6,6,4,1,?,?,1351,5,2190,8,2638,3,3006,6,3430,4,4470,1,8310,{ENTER},
5,8,4,2,6,5,4,7,8,1,7,?,720,2,1208,6,1528,5,1800,4,2664,8,2832,1,3008,7,3736,{ENTER},
5,8,5,8,1,3,4,8,5,2,7,9,1127,8,1318,3,1550,1,3078,4,3350,7,4222,2,4278,9,4526,{ENTER},
5,8,6,2,6,5,8,4,?,?,?,?,1937,2,2433,6,3001,5,3137,8,3585,{ENTER},
5,8,7,2,8,6,1,5,9,?,?,?,1084,2,1260,8,1612,6,1740,1,2516,9,3460,{ENTER},
5,8,8,1,2,4,3,6,8,5,?,?,442,1,754,2,1034,4,1290,3,1714,8,1906,5,3330,{ENTER},
5,8,9,6,8,5,1,7,9,3,4,?,1086,6,1974,8,2190,5,2662,9,2822,1,3158,3,3358,4,3822,{ENTER},
5,8,10,7,8,5,6,8,4,1,9,3,777,7,1113,8,2417,5,2601,6,2968,4,3488,1,3704,9,3952,3,4385,{ENTER},
5,8,11,8,1,9,4,4,?,?,?,?,1137,8,1401,1,1817,9,2049,4,2353,{ENTER},
5,8,12,7,2,8,9,5,5,?,?,?,1595,7,1851,2,2891,8,3075,9,3523,5,4819,{ENTER},
5,8,13,6,9,3,4,6,8,1,?,?,1396,6,1645,9,2381,3,2628,8,3228,4,3356,1,4052,{ENTER},
5,8,14,9,2,5,8,7,6,1,3,?,1558,9,2758,2,2998,5,4094,6,4806,8,5454,1,5590,3,7006,{ENTER},
5,8,15,3,6,7,9,8,5,4,1,8,467,3,1851,6,2051,7,2274,8,2474,9,3042,5,3306,4,3690,8,4602,{ENTER},
5,9,1,4,7,5,9,4,?,?,?,?,1231,4,1759,7,2215,5,2759,9,3191,{ENTER},
5,9,2,3,5,7,4,5,9,?,?,?,1366,3,1758,5,2158,7,2806,4,3142,9,6054,{ENTER},
5,9,3,5,8,3,6,6,4,1,?,?,815,5,1375,8,1951,3,2583,6,2983,4,3367,1,4455,{ENTER},
5,9,4,2,6,5,4,7,8,1,7,?,782,2,1374,6,1742,5,2190,8,2806,4,3206,1,3718,7,4638,{ENTER},
5,9,5,8,1,3,4,8,5,2,7,9,327,8,1103,1,1607,3,2023,5,2367,4,4599,7,4983,2,5543,9,7727,0,8007,0,13079,{ENTER},
5,9,6,2,6,5,8,4,?,?,?,?,1231,2,1895,6,2207,5,2631,8,3159,{ENTER},
5,9,7,2,8,6,1,5,9,?,?,?,657,2,1505,8,1953,6,2417,1,3001,9,3497,{ENTER},
5,9,8,1,2,4,3,6,8,5,?,?,1663,1,2167,2,2655,4,4639,3,5495,8,5943,5,6671,{ENTER},
5,9,9,6,8,5,1,7,9,3,4,?,632,6,1408,8,2128,5,3040,9,4104,1,9400,3,9568,4,10352,{ENTER},
5,9,10,7,8,5,6,8,4,1,9,3,1544,7,1616,8,2096,5,2192,6,2568,4,2920,1,3448,9,4712,3,10888,{ENTER},
5,9,11,8,1,9,4,4,?,?,?,?,1607,8,2063,1,2607,9,3215,4,4191,{ENTER},
5,9,12,7,2,8,9,5,5,?,?,?,952,7,1416,2,1936,8,2136,9,2528,5,3584,{ENTER},
