Session:,Subject:,Trials.Sample:,First:,Second:,Third:,Fourth:,DigitSpan:,Fifth:,Sixth:,Seventh:,Eighth:,KeyPress1RT:,KeyPress1RESP:,KeyPress2RT:,KeyPress2RESP:,KeyPress3RT:,KeyPress3RESP:,KeyPress4RT:,KeyPress4RESP:,KeyPress5RT:,KeyPress5RESP:,KeyPress6RT:,KeyPress6RESP:,KeyPress7RT:,KeyPress7RESP:,KeyPress8RT:,KeyPress8RESP:
10,10,1,3,4,6,8,4,?,?,?,?,1794,8,3442,6,4106,4,4522,3,5218,{ENTER},
10,10,2,2,6,9,8,5,7,?,?,?,1217,7,2641,8,10305,9,14257,6,14705,2,15241,{ENTER},
10,10,3,1,4,3,6,6,8,5,?,?,1110,5,4389,8,7837,6,10541,3,12157,4,12605,1,13077,{ENTER},
10,10,4,3,7,4,5,7,8,1,6,?,1943,6,2335,1,4551,8,7334,5,8822,7,9070,3,9518,{ENTER},
10,10,5,1,8,4,3,8,5,2,9,7,1192,7,1496,9,10368,8,12216,4,13416,3,13832,1,14600,{ENTER},
10,10,6,8,5,6,2,4,?,?,?,?,1763,2,8099,6,8803,5,9091,8,10667,{ENTER},
10,10,7,9,6,1,8,5,2,?,?,?,1412,2,2243,8,5099,1,6235,6,6515,9,7363,{ENTER},
10,10,8,4,2,1,7,6,3,8,?,?,1520,8,3632,3,4280,7,7760,1,9424,2,9680,4,10664,{ENTER},
10,10,9,8,5,6,3,7,9,1,4,?,1258,4,1530,1,3530,9,15914,6,17682,3,19394,8,20962,{ENTER},
10,10,10,6,4,5,8,8,7,1,9,3,2802,3,3186,1,3714,9,7250,7,10042,8,10714,6,12026,{ENTER},
10,10,11,9,4,8,1,4,?,?,?,?,1465,1,4465,8,5833,4,6257,9,7521,{ENTER},
10,10,12,2,8,7,5,5,9,?,?,?,1007,9,2343,5,4535,7,6087,8,6671,2,8303,{ENTER},
10,10,13,9,3,6,1,6,8,4,?,?,5429,4,8525,8,11157,1,14573,6,17565,3,18029,9,18685,{ENTER},
10,10,14,2,5,9,6,7,1,8,3,?,2602,3,3066,8,5746,1,11506,6,13090,9,17170,5,17610,2,18114,{ENTER},
10,10,15,7,3,6,4,8,9,5,8,1,1221,1,1501,8,6477,5,6733,9,14869,6,15085,4,15373,2,15733,{ENTER},
10,11,1,3,4,6,8,4,?,?,?,?,3172,8,3724,6,4236,4,4748,3,6156,{ENTER},
10,11,2,2,6,9,8,5,7,?,?,?,4525,7,9845,8,14956,9,15860,8,16644,2,33204,{ENTER},
10,11,3,1,4,3,6,6,8,5,?,?,1623,5,2263,8,6079,6,7071,5,8799,1,9759,{ENTER},
10,11,4,3,7,4,5,7,8,1,6,?,1115,6,1611,1,2683,8,3187,7,3739,5,4795,6,5235,3,6067,{ENTER},
10,11,5,1,8,4,3,8,5,2,9,7,1221,7,1549,9,2341,3,3181,1,3925,5,4389,4,4685,3,5461,{ENTER},
10,11,6,8,5,6,2,4,?,?,?,?,5003,2,11179,6,12403,5,12755,8,13435,{ENTER},
10,11,7,9,6,1,8,5,2,?,?,?,2152,2,3168,8,3984,6,4472,9,4912,{ENTER},
10,11,8,4,2,1,7,6,3,8,?,?,1429,8,2965,3,4021,9,4573,7,5157,2,5741,{ENTER},
10,11,9,8,5,6,3,7,9,1,4,?,1091,4,1539,1,2299,9,2491,9,2507,8,4579,4,5659,{ENTER},
10,11,10,6,4,5,8,8,7,1,9,3,1996,3,3564,9,4412,8,4588,7,5588,4,5764,3,6156,{ENTER},
10,11,11,9,4,8,1,4,?,?,?,?,2862,1,4078,8,4934,4,5470,9,6046,{ENTER},
10,11,12,2,8,7,5,5,9,?,?,?,951,9,3255,5,11855,9,12583,8,14543,7,15095,2,16118,{ENTER},
10,11,13,9,3,6,1,6,8,4,?,?,72,8,864,4,1680,9,2760,3,3960,6,4200,8,4608,{ENTER},
10,11,14,2,5,9,6,7,1,8,3,?,993,3,2089,9,2401,8,3713,2,4313,5,4641,4,5073,3,5569,{ENTER},
10,11,15,7,3,6,4,8,9,5,8,1,872,1,1680,9,1888,8,2304,7,2664,6,3048,5,3792,{ENTER},
10,4,1,3,4,6,8,4,?,?,?,?,1079,8,1255,6,1399,4,1615,3,1847,{ENTER},
10,4,2,2,6,9,8,5,7,?,?,?,413,7,509,8,637,9,933,6,1173,2,1389,{ENTER},
10,4,3,1,4,3,6,6,8,5,?,?,296,5,664,8,912,6,1160,3,1432,4,1656,1,1848,{ENTER},
10,4,4,3,7,4,5,7,8,1,6,?,514,6,714,1,866,8,1090,5,1210,4,1418,7,1642,3,1882,{ENTER},
10,4,5,1,8,4,3,8,5,2,9,7,272,7,400,9,616,8,2767,2,2871,3,3119,5,3215,4,3423,1,3559,{ENTER},
10,4,6,8,5,6,2,4,?,?,?,?,297,2,513,6,697,5,905,8,1129,{ENTER},
10,4,7,9,6,1,8,5,2,?,?,?,1991,2,3407,8,4151,9,4887,6,4935,1,5399,{ENTER},
10,4,8,4,2,1,7,6,3,8,?,?,24,8,272,3,880,7,1288,1,1408,2,1568,4,1808,{ENTER},
10,4,9,8,5,6,3,7,9,1,4,?,252,4,444,1,692,9,964,3,1220,6,1412,5,1620,8,1844,{ENTER},
10,4,10,6,4,5,8,8,7,1,9,3,46,3,398,9,686,1,1206,7,1654,8,2414,6,2486,4,2622,5,2982,{ENTER},
10,4,11,9,4,8,1,4,?,?,?,?,375,1,623,8,727,4,887,9,1191,{ENTER},
10,4,12,2,8,7,5,5,9,?,?,?,863,9,959,5,1159,7,1239,8,1463,2,1607,{ENTER},
10,4,13,9,3,6,1,6,8,4,?,?,608,4,776,8,984,1,1440,3,2064,9,2448,6,2696,{ENTER},
10,4,14,2,5,9,6,7,1,8,3,?,95,3,295,8,567,1,751,6,959,9,1143,5,1503,{ENTER},
10,4,15,7,3,6,4,8,9,5,8,1,255,8,343,9,551,4,727,6,919,3,1127,7,1359,5,1543,1,1743,{ENTER},
10,5,1,3,4,6,8,4,?,?,?,?,747,8,3395,6,5587,4,7307,3,7939,{ENTER},
10,5,2,2,6,9,8,5,7,?,?,?,328,7,760,8,1376,6,8728,2,13616,{ENTER},
10,5,3,1,4,3,6,6,8,5,?,?,3484,5,4316,8,5212,6,7892,3,8180,1,9468,{ENTER},
10,5,4,3,7,4,5,7,8,1,6,?,1610,6,2202,1,2874,8,5818,4,6002,3,6818,{ENTER},
10,5,5,1,8,4,3,8,5,2,9,7,886,7,1542,9,3150,8,4766,2,5006,1,6494,{ENTER},
10,5,6,8,5,6,2,4,?,?,?,?,6324,2,7972,6,8556,8,9300,5,10828,{ENTER},
10,5,7,9,6,1,8,5,2,?,?,?,2903,2,3503,8,7407,5,8375,1,9375,{ENTER},
10,5,8,4,2,1,7,6,3,8,?,?,4565,8,5981,3,11917,7,12525,1,16181,3,19845,{ENTER},
10,5,9,8,5,6,3,7,9,1,4,?,1256,4,2536,1,3312,8,5784,9,6848,6,8272,{ENTER},
10,5,10,6,4,5,8,8,7,1,9,3,2572,3,2804,1,6540,8,9580,7,14116,8,14572,4,15892,6,16732,{ENTER},
10,5,11,9,4,8,1,4,?,?,?,?,5083,1,6075,8,9019,4,9563,9,10523,{ENTER},
10,5,12,2,8,7,5,5,9,?,?,?,1817,9,2705,5,4129,7,6001,8,7041,2,8961,{ENTER},
10,5,13,9,3,6,1,6,8,4,?,?,3438,4,4126,8,4774,7,8390,3,8990,1,11958,{ENTER},
10,5,14,2,5,9,6,7,1,8,3,?,2430,1,4766,2,5622,3,6574,7,7838,{ENTER},
10,5,15,7,3,6,4,8,9,5,8,1,3099,1,3867,8,9106,3,9682,7,11634,1,12450,{ENTER},
10,6,1,3,4,6,8,4,?,?,?,?,1764,8,2180,6,2708,4,3204,3,4044,{ENTER},
10,6,2,2,6,9,8,5,7,?,?,?,3660,7,4188,8,4539,9,4916,6,5236,2,5779,{ENTER},
10,6,3,1,4,3,6,6,8,5,?,?,2222,5,2638,8,3094,6,3494,3,3830,4,4078,1,4694,{ENTER},
10,6,4,3,7,4,5,7,8,1,6,?,4358,6,4902,1,5518,8,7870,5,8774,4,9070,7,9550,3,10142,{ENTER},
10,6,5,1,8,4,3,8,5,2,9,7,7282,7,8330,9,10178,2,10730,5,17978,3,19010,4,19410,8,19730,1,20266,{ENTER},
10,6,6,8,5,6,2,4,?,?,?,?,4926,2,7094,6,8590,5,8894,8,9437,{ENTER},
10,6,7,9,6,1,8,5,2,?,?,?,3671,2,4135,8,5439,5,6055,6,6279,9,6727,{ENTER},
10,6,8,4,2,1,7,6,3,8,?,?,2942,8,3645,3,5221,7,7757,1,9957,2,10501,4,11277,{ENTER},
10,6,9,8,5,6,3,7,9,1,4,?,2650,4,2962,1,3330,9,5826,3,8258,6,8642,5,8938,8,12473,{ENTER},
10,6,10,6,4,5,8,8,7,1,9,3,2110,3,2486,9,4710,1,8326,8,8686,5,10326,4,10678,6,13758,{ENTER},
10,6,11,9,4,8,1,4,?,?,?,?,4107,1,5539,8,5851,4,6187,9,6715,{ENTER},
10,6,12,2,8,7,5,5,9,?,?,?,2474,9,3554,5,6905,7,7313,8,7945,2,8585,{ENTER},
10,6,13,9,3,6,1,6,8,4,?,?,1647,4,6151,8,11831,1,12863,6,13807,3,14311,9,14727,{ENTER},
10,6,14,2,5,9,6,7,1,8,3,?,3864,3,4344,8,6632,1,9992,6,11488,9,11904,5,12192,2,13856,{ENTER},
10,6,15,7,3,6,4,8,9,5,8,1,3125,1,3565,8,7709,5,8125,9,11045,4,13997,6,14861,3,15469,7,17213,{ENTER},
10,9,1,3,4,6,8,4,?,?,?,?,1031,8,1471,6,2271,4,2575,3,3671,{ENTER},
10,9,2,2,6,9,8,5,7,?,?,?,820,7,1164,6,2532,8,3796,2,4420,{ENTER},
10,9,3,1,4,3,6,6,8,5,?,?,2150,5,4070,8,4630,6,6022,3,6870,{ENTER},
10,9,4,3,7,4,5,7,8,1,6,?,832,1,1576,6,2304,8,3576,5,4240,6,5304,3,5712,{ENTER},
10,9,5,1,8,4,3,8,5,2,9,7,849,7,1128,9,2009,8,3144,4,4000,3,4176,2,4960,{ENTER},
10,9,6,8,5,6,2,4,?,?,?,?,3675,2,6419,6,9971,5,10347,8,10771,{ENTER},
10,9,7,9,6,1,8,5,2,?,?,?,800,2,1296,8,3768,1,4848,9,5592,6,6344,{ENTER},
10,9,8,4,2,1,7,6,3,8,?,?,1581,8,9549,1,15732,7,21500,1,25868,4,26564,{ENTER},
10,9,9,8,5,6,3,7,9,1,4,?,4258,4,5162,6,6409,3,7137,8,10665,4,11153,{ENTER},
10,9,10,6,4,5,8,8,7,1,9,3,1402,3,1850,9,3754,1,4090,7,6602,6,7546,{ENTER},
10,9,11,9,4,8,1,4,?,?,?,?,1589,1,2581,8,12637,4,14397,9,15077,{ENTER},
10,9,12,2,8,7,5,5,9,?,?,?,789,9,3237,5,4157,7,4773,2,5277,{ENTER},
10,9,13,9,3,6,1,6,8,4,?,?,1116,4,1532,8,3756,6,4028,7,5588,9,6316,{ENTER},
10,9,14,2,5,9,6,7,1,8,3,?,818,3,1202,8,2466,1,2794,6,5954,5,6434,{ENTER},
10,9,15,7,3,6,4,8,9,5,8,1,942,1,2062,4,2494,8,3110,7,4005,5,4453,4,5757,{ENTER},
1,10,1,3,4,6,8,4,?,?,?,?,708,8,1060,6,2068,4,2396,3,3020,{ENTER},
1,10,2,2,6,9,8,5,7,?,?,?,299,7,531,8,1075,9,2035,6,2595,2,4123,{ENTER},
1,10,3,1,4,3,6,6,8,5,?,?,912,5,1152,8,1448,6,2736,3,3232,4,3728,1,4328,{ENTER},
1,10,4,3,7,4,5,7,8,1,6,?,757,6,1317,1,2917,8,3373,5,3837,4,4253,7,4893,3,5549,{ENTER},
1,10,5,1,8,4,3,8,5,2,9,7,4763,7,8155,9,10411,3,17931,8,24523,2,25083,4,25419,1,25939,{ENTER},
1,10,6,8,5,6,2,4,?,?,?,?,5652,2,6044,6,6444,5,6836,8,7452,{ENTER},
1,10,7,9,6,1,8,5,2,?,?,?,844,2,1052,8,2004,1,4268,6,4388,9,4940,{ENTER},
1,10,8,4,2,1,7,6,3,8,?,?,2784,8,3064,3,3544,7,7712,1,7840,2,8040,4,9384,{ENTER},
1,10,9,8,5,6,3,7,9,1,4,?,2477,8,6205,4,6397,1,8796,9,9012,3,9732,6,9908,5,10300,8,10940,{ENTER},
1,10,10,6,4,5,8,8,7,1,9,3,945,3,1393,9,1793,1,4745,7,4921,8,8233,5,8537,4,8745,6,9209,{ENTER},
1,10,11,9,4,8,1,4,?,?,?,?,4763,1,5195,8,5579,4,5891,9,6459,{ENTER},
1,10,12,2,8,7,5,5,9,?,?,?,677,9,1317,5,3797,7,4125,8,4477,2,4957,{ENTER},
1,10,13,9,3,6,1,6,8,4,?,?,1777,4,1905,8,2545,1,8129,6,8281,3,8545,9,9033,{ENTER},
1,10,14,2,5,9,6,7,1,8,3,?,1060,3,1524,8,1940,1,2500,6,3188,9,8108,6,8516,5,8908,2,9500,{ENTER},
1,10,15,7,3,6,4,8,9,5,8,1,380,1,1900,8,5708,5,6052,9,6404,4,6836,3,8860,7,10404,3,10788,5,11396,{ENTER},
11,10,1,3,4,6,8,4,?,?,?,?,542,8,798,6,1046,4,1318,3,1550,{ENTER},
11,10,2,2,6,9,8,5,7,?,?,?,208,8,424,9,648,6,888,2,1208,{ENTER},
11,10,3,1,4,3,6,6,8,5,?,?,539,5,1163,8,1755,6,2259,3,2771,4,3091,1,3635,{ENTER},
11,10,4,3,7,4,5,7,8,1,6,?,4227,6,4507,1,4843,8,6011,5,6211,4,6403,7,6803,3,6995,{ENTER},
11,10,5,1,8,4,3,8,5,2,9,7,401,7,697,9,1009,2,1233,3,3217,4,4393,5,4609,8,4841,1,5096,{ENTER},
11,10,6,8,5,6,2,4,?,?,?,?,2731,8,5827,2,6011,6,6219,5,6387,8,6611,{ENTER},
11,10,7,9,6,1,8,5,2,?,?,?,340,2,604,8,892,1,2484,6,2684,9,3380,{ENTER},
11,10,8,4,2,1,7,6,3,8,?,?,375,8,695,3,1159,7,1527,1,1719,2,1951,4,2407,{ENTER},
11,10,9,8,5,6,3,7,9,1,4,?,594,4,834,1,1402,9,1930,3,2170,6,2378,5,2602,8,2898,{ENTER},
11,10,10,6,4,5,8,8,7,1,9,3,259,3,515,9,923,1,1243,7,1459,8,1995,5,2203,4,2443,6,2667,{ENTER},
11,10,11,9,4,8,1,4,?,?,?,?,3393,1,3681,8,3929,4,4201,9,4465,{ENTER},
11,10,12,2,8,7,5,5,9,?,?,?,446,9,670,5,894,7,1086,8,1350,2,1606,{ENTER},
11,10,13,9,3,6,1,6,8,4,?,?,2813,4,3069,8,3637,1,3973,6,4189,3,4453,9,5829,{ENTER},
11,10,14,2,5,9,6,7,1,8,3,?,351,3,663,8,1063,1,1455,6,1687,9,1967,5,2183,2,2463,{ENTER},
11,10,15,7,3,6,4,8,9,5,8,1,263,1,527,8,3127,5,3335,9,3687,4,3983,3,4215,6,4463,7,4759,{ENTER},
11,11,1,3,4,6,8,4,?,?,?,?,2368,8,3728,6,7960,4,8592,1,9064,3,10504,{ENTER},
11,11,2,2,6,9,8,5,7,?,?,?,1927,7,5615,6,8902,1,9150,2,10662,{ENTER},
11,11,3,1,4,3,6,6,8,5,?,?,2016,5,5968,6,9296,3,9568,1,9832,4,10328,{ENTER},
11,11,4,3,7,4,5,7,8,1,6,?,2385,6,2593,1,5049,5,8329,6,8537,8,8769,3,9457,{ENTER},
11,11,5,1,8,4,3,8,5,2,9,7,1945,7,2137,9,3233,2,6529,5,7000,1,7272,3,8512,{ENTER},
11,11,6,8,5,6,2,4,?,?,?,?,3581,2,5061,6,7565,5,8781,1,13085,8,14805,{ENTER},
11,11,7,9,6,1,8,5,2,?,?,?,3209,2,8609,9,23521,1,26793,8,28689,6,31537,9,32121,{ENTER},
11,11,8,4,2,1,7,6,3,8,?,?,2046,8,5950,7,7374,6,9054,3,9286,1,9510,4,9894,{ENTER},
11,11,9,8,5,6,3,7,9,1,4,?,440,4,728,1,1048,9,3400,3,5487,6,5679,8,7071,{ENTER},
11,11,10,6,4,5,8,8,7,1,9,3,1586,3,2498,9,5002,1,11018,7,14634,8,19385,9,20385,4,20673,6,21345,{ENTER},
11,11,11,9,4,8,1,4,?,?,?,?,1849,1,4145,8,5009,4,5785,9,6225,{ENTER},
11,11,12,2,8,7,5,5,9,?,?,?,4321,9,4633,5,6097,4,6409,2,7609,{ENTER},
11,11,13,9,3,6,1,6,8,4,?,?,1052,4,1204,8,3812,9,8332,2,9620,3,9796,1,11676,{ENTER},
11,11,14,2,5,9,6,7,1,8,3,?,1143,3,1463,9,5391,1,6151,6,7655,3,8503,{ENTER},
11,11,15,7,3,6,4,8,9,5,8,1,827,1,1139,8,4187,6,4459,4,4755,7,5187,{ENTER},
1,11,1,3,4,6,8,4,?,?,?,?,2041,8,2369,6,2953,4,3353,3,4217,{ENTER},
1,11,2,2,6,9,8,5,7,?,?,?,3073,7,3417,8,3777,9,7329,6,7953,1,8225,2,8921,{ENTER},
1,11,3,1,4,3,6,6,8,5,?,?,2913,5,3545,6,5337,8,11248,3,12912,2,13192,1,13656,{ENTER},
1,11,4,3,7,4,5,7,8,1,6,?,892,6,1252,1,1604,8,9196,5,9500,4,11276,1,11452,3,12268,{ENTER},
1,11,5,1,8,4,3,8,5,2,9,7,1209,7,1481,9,1881,2,2137,5,6657,2,6905,3,8377,8,8657,1,9489,{ENTER},
1,11,6,8,5,6,2,4,?,?,?,?,5775,2,5983,6,6175,5,6479,8,6991,{ENTER},
1,11,7,9,6,1,8,5,2,?,?,?,5777,2,9625,1,11145,6,11601,8,11841,9,12433,{ENTER},
1,11,8,4,2,1,7,6,3,8,?,?,2441,8,3377,3,4609,7,6193,2,6409,1,7441,{ENTER},
1,11,9,8,5,6,3,7,9,1,4,?,2003,4,2723,1,4427,9,5547,8,5899,7,7091,6,8027,{ENTER},
1,11,10,6,4,5,8,8,7,1,9,3,926,3,1246,9,1638,7,2334,1,10934,6,15374,8,15710,{ENTER},
1,11,11,9,4,8,1,4,?,?,?,?,4437,1,6068,8,6325,4,6525,9,7764,{ENTER},
1,11,12,2,8,7,5,5,9,?,?,?,4751,9,18119,7,18511,2,18743,8,21223,{ENTER},
1,11,13,9,3,6,1,6,8,4,?,?,1236,4,1404,8,1692,1,2940,9,4180,6,4804,{ENTER},
1,11,14,2,5,9,6,7,1,8,3,?,554,3,802,8,1090,1,4466,6,4738,9,5218,2,9145,8,9809,{ENTER},
1,11,15,7,3,6,4,8,9,5,8,1,839,1,1039,8,1367,5,7655,7,10695,9,12399,6,13719,{ENTER},
11,3,1,3,4,6,8,4,?,?,?,?,1702,8,2390,6,4470,4,4758,3,5366,{ENTER},
11,3,2,2,6,9,8,5,7,?,?,?,1603,7,3491,8,6227,6,6843,2,13810,{ENTER},
11,3,3,1,4,3,6,6,8,5,?,?,2070,5,4526,8,9046,6,9678,4,9910,3,10774,1,11550,{ENTER},
11,3,4,3,7,4,5,7,8,1,6,?,4013,8,4645,1,6941,4,7109,3,10997,7,11437,5,12581,{ENTER},
11,3,5,1,8,4,3,8,5,2,9,7,1309,7,3653,5,5629,4,5781,3,6021,5,6261,1,6949,{ENTER},
11,3,6,8,5,6,2,4,?,?,?,?,3873,2,5593,6,7089,5,7257,8,7897,{ENTER},
11,3,7,9,6,1,8,5,2,?,?,?,3512,1,3704,8,14968,6,15256,9,15968,{ENTER},
11,3,8,4,2,1,7,6,3,8,?,?,1143,8,1679,7,2959,3,3095,4,4623,1,5295,{ENTER},
11,3,9,8,5,6,3,7,9,1,4,?,2281,4,2625,1,7153,5,7337,3,9169,8,9961,{ENTER},
11,3,10,6,4,5,8,8,7,1,9,3,2682,3,3386,1,3602,9,5386,5,5458,4,5642,8,6450,{ENTER},
11,3,11,9,4,8,1,4,?,?,?,?,3410,1,5866,8,6122,4,6250,9,6922,{ENTER},
11,3,12,2,8,7,5,5,9,?,?,?,5261,9,10781,7,12149,5,15637,8,15789,2,16461,{ENTER},
11,3,13,9,3,6,1,6,8,4,?,?,2289,4,2481,8,5017,1,5137,3,5337,9,7193,{ENTER},
11,3,14,2,5,9,6,7,1,8,3,?,3278,3,4966,1,5190,6,5654,5,8094,9,8366,1,8990,{ENTER},
11,3,15,7,3,6,4,8,9,5,8,1,669,1,1189,8,1693,7,2285,6,2501,5,3293,4,4205,{ENTER},
11,4,1,3,4,6,8,4,?,?,?,?,1449,8,3617,6,4713,4,5008,3,6816,{ENTER},
11,4,2,2,6,9,8,5,7,?,?,?,1058,2,1786,6,2314,9,2699,8,2922,7,8250,7,15146,{ENTER},
11,4,3,1,4,3,6,6,8,5,?,?,3217,5,3761,8,6753,4,6953,3,7177,1,9673,{ENTER},
11,4,4,3,7,4,5,7,8,1,6,?,1412,6,3228,1,4020,8,5668,3,6268,7,7092,{ENTER},
11,4,5,1,8,4,3,8,5,2,9,7,1196,7,3524,9,4604,5,12748,3,13244,1,14116,{ENTER},
11,4,6,8,5,6,2,4,?,?,?,?,2767,2,8015,6,13367,5,14167,8,15855,{ENTER},
11,4,7,9,6,1,8,5,2,?,?,?,5539,2,6371,8,7347,1,9155,6,9787,9,11123,{ENTER},
11,4,8,4,2,1,7,6,3,8,?,?,2038,8,2710,3,8334,2,8502,1,9222,7,10902,4,12070,{ENTER},
11,4,9,8,5,6,3,7,9,1,4,?,3568,4,6656,6,7192,9,17184,3,17920,7,17984,8,18808,{ENTER},
11,4,10,6,4,5,8,8,7,1,9,3,2751,3,4391,9,4943,1,8607,8,10415,7,10671,6,11903,{ENTER},
11,4,11,9,4,8,1,4,?,?,?,?,2557,1,4301,8,5717,4,6269,9,7333,{ENTER},
11,4,12,2,8,7,5,5,9,?,?,?,1344,9,3216,5,3456,7,5176,8,5680,2,6248,{ENTER},
11,4,13,9,3,6,1,6,8,4,?,?,5669,4,9525,8,10029,1,15581,6,16029,3,16653,9,17205,{ENTER},
11,4,14,2,5,9,6,7,1,8,3,?,770,3,6610,8,7226,1,13409,6,14025,9,14897,5,17505,3,18233,{ENTER},
11,4,15,7,3,6,4,8,9,5,8,1,837,1,1701,8,2181,5,7893,6,10261,7,11493,{ENTER},
11,5,1,3,4,6,8,4,?,?,?,?,7259,8,7779,6,8219,4,8691,3,9579,{ENTER},
11,5,2,2,6,9,8,5,7,?,?,?,3315,7,3779,8,4259,9,5003,6,5331,2,6003,{ENTER},
11,5,3,1,4,3,6,6,8,5,?,?,5278,5,5654,8,5958,6,6550,4,8742,3,9054,1,9958,{ENTER},
11,5,4,3,7,4,5,7,8,1,6,?,893,6,3269,1,7541,8,8093,7,11781,3,12013,2,13077,{ENTER},
11,5,5,1,8,4,3,8,5,2,9,7,201,7,2921,9,3584,2,7392,5,7632,8,8128,3,8960,{ENTER},
11,5,6,8,5,6,2,4,?,?,?,?,4131,2,5291,6,5587,5,5771,8,6251,{ENTER},
11,5,7,9,6,1,8,5,2,?,?,?,7963,2,8355,8,11339,1,11619,6,11811,9,12851,{ENTER},
11,5,8,4,2,1,7,6,3,8,?,?,3087,8,3351,7,6727,4,7111,2,9703,1,10063,{ENTER},
11,5,9,8,5,6,3,7,9,1,4,?,11458,4,11730,1,12162,9,15938,3,16170,6,17298,{ENTER},
11,5,10,6,4,5,8,8,7,1,9,3,1390,3,8126,1,8542,9,9670,8,10934,6,11286,4,12966,{ENTER},
11,5,11,9,4,8,1,4,?,?,?,?,4714,1,5098,8,5450,4,5762,9,6474,{ENTER},
11,5,12,2,8,7,5,5,9,?,?,?,4329,9,4609,5,4873,7,5433,8,5721,2,6201,{ENTER},
11,5,13,9,3,6,1,6,8,4,?,?,1228,4,3188,1,6692,7,7972,6,8188,9,8820,{ENTER},
11,5,14,2,5,9,6,7,1,8,3,?,3424,3,8160,8,8528,1,11488,6,13527,7,13752,5,14384,{ENTER},
11,5,15,7,3,6,4,8,9,5,8,1,2433,1,2769,8,3265,4,4561,5,4985,7,5337,9,6321,{ENTER},
11,6,1,3,4,6,8,4,?,?,?,?,3175,8,3335,6,4111,4,4255,3,4831,{ENTER},
11,6,2,2,6,9,8,5,7,?,?,?,3774,7,3982,8,4190,9,5822,6,5958,2,6462,{ENTER},
11,6,3,1,4,3,6,6,8,5,?,?,4079,5,7135,8,7310,6,9999,3,11774,4,12014,1,12455,{ENTER},
11,6,4,3,7,4,5,7,8,1,6,?,8962,6,9122,8,9474,4,10850,7,10978,3,11314,{ENTER},
11,6,5,1,8,4,3,8,5,2,9,7,2563,7,2731,9,8915,5,9099,8,11659,3,11819,4,12083,1,12491,{ENTER},
11,6,6,8,5,6,2,4,?,?,?,?,3705,2,4377,6,6569,5,6705,8,7297,{ENTER},
11,6,7,9,6,1,8,5,2,?,?,?,1928,2,4560,8,7936,1,10456,6,10616,9,12720,{ENTER},
11,6,8,4,2,1,7,6,3,8,?,?,3730,8,18170,7,19370,4,19562,2,20898,1,21154,{ENTER},
11,6,9,8,5,6,3,7,9,1,4,?,1190,4,1358,1,14374,6,14582,9,17678,5,18806,8,24886,{ENTER},
11,6,10,6,4,5,8,8,7,1,9,3,6309,3,6605,1,6789,9,16701,6,16917,7,20205,4,20341,5,25229,8,25565,{ENTER},
11,6,11,9,4,8,1,4,?,?,?,?,3716,1,4228,8,6516,4,6692,9,7020,{ENTER},
11,6,12,2,8,7,5,5,9,?,?,?,3549,9,4525,7,4669,5,6069,8,6165,2,8293,{ENTER},
11,6,13,9,3,6,1,6,8,4,?,?,2518,4,2710,8,20382,7,20542,6,20678,9,21366,{ENTER},
11,6,14,2,5,9,6,7,1,8,3,?,894,3,1190,8,1574,1,10046,9,10166,5,10782,{ENTER},
11,6,15,7,3,6,4,8,9,5,8,1,1244,1,1484,8,5580,9,5740,5,8764,7,10148,3,10276,{ENTER},
11,8,1,3,4,6,8,4,?,?,?,?,1479,8,1855,6,2335,3,3327,{ENTER},
11,8,2,2,6,9,8,5,7,?,?,?,104,7,608,8,976,6,1712,3,2152,2,2504,{ENTER},
11,8,3,1,4,3,6,6,8,5,?,?,586,5,882,8,3234,6,3482,3,3746,2,4186,{ENTER},
11,8,4,3,7,4,5,7,8,1,6,?,2149,6,4037,1,5629,8,6069,5,6613,1,7213,{ENTER},
11,8,5,1,8,4,3,8,5,2,9,7,823,7,1095,9,2311,2,2551,4,2911,3,3183,{ENTER},
11,8,6,8,5,6,2,4,?,?,?,?,3048,2,3392,6,3592,5,4296,{ENTER},
11,8,7,9,6,1,8,5,2,?,?,?,667,2,1059,7,3491,4,3778,1,4330,2,4698,{ENTER},
11,8,8,4,2,1,7,6,3,8,?,?,432,8,720,7,1584,3,2008,1,3872,{ENTER},
11,8,9,8,5,6,3,7,9,1,4,?,498,4,898,1,1818,3,2202,6,2514,5,2778,9,3314,{ENTER},
11,8,10,6,4,5,8,8,7,1,9,3,906,3,1234,9,1698,8,1954,7,2498,1,3026,5,3442,6,3722,{ENTER},
11,8,11,9,4,8,1,4,?,?,?,?,3631,1,3855,4,4071,8,4471,9,4751,{ENTER},
11,8,12,2,8,7,5,5,9,?,?,?,907,9,1499,8,1755,5,1851,2,2099,0,4155,1,5235,{ENTER},
11,8,13,9,3,6,1,6,8,4,?,?,1364,4,1604,8,1972,1,3772,3,4004,6,4308,{ENTER},
11,8,14,2,5,9,6,7,1,8,3,?,2739,3,3019,6,3339,8,3659,9,4131,1,4595,{ENTER},
11,8,15,7,3,6,4,8,9,5,8,1,737,1,1305,8,1585,7,1849,5,2361,1,2721,6,3393,{ENTER},
11,9,1,3,4,6,8,4,?,?,?,?,3370,8,4050,6,4442,4,4746,3,5242,{ENTER},
11,9,2,2,6,9,8,5,7,?,?,?,463,7,1183,8,6959,9,7511,6,8383,2,9359,{ENTER},
11,9,3,1,4,3,6,6,8,5,?,?,3422,5,4286,8,9718,3,10646,6,12110,4,12414,1,12974,{ENTER},
11,9,4,3,7,4,5,7,8,1,6,?,1223,6,1687,1,5591,8,10639,5,11495,4,14391,7,14911,3,15687,{ENTER},
11,9,5,1,8,4,3,8,5,2,9,7,1301,7,1845,9,25732,8,28580,5,29036,2,33068,4,33628,3,34724,{ENTER},
11,9,6,8,5,6,2,4,?,?,?,?,919,2,1751,6,3287,5,3503,8,4327,{ENTER},
11,9,7,9,6,1,8,5,2,?,?,?,681,2,1145,8,6841,6,7481,9,9081,8,9905,{ENTER},
11,9,8,4,2,1,7,6,3,8,?,?,1016,8,12576,7,16152,1,18240,2,18552,3,19168,{ENTER},
11,9,9,8,5,6,3,7,9,1,4,?,687,4,1167,1,2702,9,14782,3,15350,6,15614,8,17158,{ENTER},
11,9,10,6,4,5,8,8,7,1,9,3,1199,3,4343,9,5127,1,15655,7,15927,8,17559,3,18719,{ENTER},
11,9,11,9,4,8,1,4,?,?,?,?,3254,1,6710,8,7686,4,8070,9,8726,{ENTER},
11,9,12,2,8,7,5,5,9,?,?,?,5456,9,5888,5,6136,7,7784,8,8192,2,8752,{ENTER},
11,9,13,9,3,6,1,6,8,4,?,?,1086,4,10557,8,10933,1,13285,6,13629,3,13949,9,14709,{ENTER},
11,9,14,2,5,9,6,7,1,8,3,?,500,3,892,8,6380,1,6892,6,10908,9,11292,5,11508,2,12148,{ENTER},
11,9,15,7,3,6,4,8,9,5,8,1,2510,1,4158,9,4638,5,17790,6,18190,3,18454,2,19214,{ENTER},
1,1,1,3,4,6,8,4,?,?,?,?,3128,8,5384,6,7296,4,8432,3,9312,{ENTER},
1,1,2,2,6,9,8,5,7,?,?,?,2822,7,5822,8,7126,9,11310,6,11910,2,13190,{ENTER},
1,1,3,1,4,3,6,6,8,5,?,?,1380,5,4748,8,8956,6,11315,3,12139,4,12467,1,16067,{ENTER},
1,1,4,3,7,4,5,7,8,1,6,?,1864,6,2848,1,3336,8,5648,7,6048,3,6880,{ENTER},
1,1,5,1,8,4,3,8,5,2,9,7,1483,7,1907,9,3203,4,3715,3,8899,2,9059,1,9707,{ENTER},
1,1,6,8,5,6,2,4,?,?,?,?,2897,2,5241,6,6169,5,6521,8,8465,{ENTER},
1,1,7,9,6,1,8,5,2,?,?,?,1488,2,4632,8,7576,1,10464,6,10952,9,13048,{ENTER},
1,1,8,4,2,1,7,6,3,8,?,?,3649,8,9097,3,10409,7,13257,1,16505,2,16857,4,17417,{ENTER},
1,1,9,8,5,6,3,7,9,1,4,?,5055,4,8351,1,10887,9,16974,3,18830,6,22126,5,22990,8,24478,{ENTER},
1,1,10,6,4,5,8,8,7,1,9,3,2135,3,2375,1,8615,6,9175,4,11455,8,12199,5,13063,{ENTER},
1,1,11,9,4,8,1,4,?,?,?,?,2246,1,3646,8,5638,4,5966,9,7694,{ENTER},
1,1,12,2,8,7,5,5,9,?,?,?,1429,9,6029,5,10180,7,13156,8,13652,2,17140,{ENTER},
1,1,13,9,3,6,1,6,8,4,?,?,1642,4,5530,8,9994,6,13594,5,13858,1,14314,3,15130,{ENTER},
1,1,14,2,5,9,6,7,1,8,3,?,2248,3,2736,8,3216,1,5576,9,5920,5,6272,6,7576,{ENTER},
1,1,15,7,3,6,4,8,9,5,8,1,1007,1,6462,9,6806,5,15622,4,16974,6,19118,3,19502,7,20134,{ENTER},
12,10,1,3,4,6,8,4,?,?,?,?,648,8,848,6,1032,4,1280,3,1560,{ENTER},
12,10,2,2,6,9,8,5,7,?,?,?,506,8,698,9,898,6,1082,2,1274,7,5450,{ENTER},
12,10,3,1,4,3,6,6,8,5,?,?,148,6,348,3,564,4,756,1,940,5,1220,{ENTER},
12,10,4,3,7,4,5,7,8,1,6,?,192,8,352,5,520,7,672,4,880,3,1168,{ENTER},
12,10,5,1,8,4,3,8,5,2,9,7,838,3,1470,4,3118,7,5646,4,5654,5,5686,6,6014,{ENTER},
12,10,6,8,5,6,2,4,?,?,?,?,1596,2,1740,6,1852,5,2012,8,3548,{ENTER},
12,10,7,9,6,1,8,5,2,?,?,?,296,2,592,8,1208,1,1448,6,1640,9,1936,{ENTER},
12,10,8,4,2,1,7,6,3,8,?,?,5,7,229,3,413,8,2333,2,2797,5,3461,{ENTER},
12,10,9,8,5,6,3,7,9,1,4,?,560,4,816,1,1112,9,1416,3,1728,5,1944,6,2184,8,2608,{ENTER},
12,10,10,6,4,5,8,8,7,1,9,3,45,3,397,9,781,1,1221,4,1517,5,2293,6,3117,{ENTER},
12,10,11,9,4,8,1,4,?,?,?,?,968,8,1880,1,2088,4,2256,9,2648,{ENTER},
12,10,12,2,8,7,5,5,9,?,?,?,160,7,368,8,592,2,808,5,1040,9,1640,{ENTER},
12,10,13,9,3,6,1,6,8,4,?,?,185,3,664,9,920,6,1248,1,1472,8,1696,4,2040,{ENTER},
12,10,14,2,5,9,6,7,1,8,3,?,315,3,627,8,883,1,3987,9,4203,6,4411,5,4587,2,4835,{ENTER},
12,10,15,7,3,6,4,8,9,5,8,1,693,1,1213,8,1477,9,1709,5,2597,4,3037,3,3213,6,3413,7,3685,{ENTER},
12,11,1,3,4,6,8,4,?,?,?,?,2026,8,2602,6,3010,4,3242,3,3994,{ENTER},
12,11,2,2,6,9,8,5,7,?,?,?,1788,7,2076,8,5820,9,6412,6,6972,2,7764,{ENTER},
12,11,3,1,4,3,6,6,8,5,?,?,1866,5,2394,8,8754,6,10650,3,11098,4,11490,1,12330,{ENTER},
12,11,4,3,7,4,5,7,8,1,6,?,4876,6,5332,1,7124,8,8796,7,9420,4,9692,3,10548,{ENTER},
12,11,5,1,8,4,3,8,5,2,9,7,1429,7,1773,9,2149,8,4453,4,4669,3,4957,1,5701,{ENTER},
12,11,6,8,5,6,2,4,?,?,?,?,3698,2,4466,6,4938,5,5634,8,6226,{ENTER},
12,11,7,9,6,1,8,5,2,?,?,?,2387,2,3067,8,5611,1,6883,6,7403,9,7899,{ENTER},
12,11,8,4,2,1,7,6,3,8,?,?,3068,8,3564,3,6260,7,7052,1,7972,2,8316,4,8972,{ENTER},
12,11,9,8,5,6,3,7,9,1,4,?,1369,4,1761,1,4001,9,5881,6,6681,3,7353,8,7841,{ENTER},
12,11,10,6,4,5,8,8,7,1,9,3,2085,3,2581,9,3125,1,8061,7,8373,8,10365,4,11109,6,11893,{ENTER},
12,11,11,9,4,8,1,4,?,?,?,?,1146,1,2122,8,5706,4,6194,9,6714,{ENTER},
12,11,12,2,8,7,5,5,9,?,?,?,1597,9,5317,5,6565,7,6877,8,7477,2,8213,{ENTER},
12,11,13,9,3,6,1,6,8,4,?,?,1761,4,4424,8,6472,1,9600,6,10184,3,10696,9,11520,{ENTER},
12,11,14,2,5,9,6,7,1,8,3,?,2361,3,3001,8,6505,6,6953,9,7409,5,7721,2,8265,{ENTER},
12,11,15,7,3,6,4,8,9,5,8,1,687,1,1727,8,5510,9,6982,4,13662,6,15630,3,16174,7,16758,{ENTER},
12,3,1,3,4,6,8,4,?,?,?,?,1258,8,2066,6,2850,3,3074,4,3730,{ENTER},
12,3,2,2,6,9,8,5,7,?,?,?,221,8,4037,8,9972,6,10084,2,11628,{ENTER},
12,3,3,1,4,3,6,6,8,5,?,?,838,5,1414,8,2342,6,4750,3,5454,4,5606,1,6238,{ENTER},
12,3,4,3,7,4,5,7,8,1,6,?,2024,6,2832,1,3776,7,4560,4,5504,5,5768,8,6120,{ENTER},
12,3,5,1,8,4,3,8,5,2,9,7,1800,7,4392,2,6016,7,6024,6,6152,3,6576,{ENTER},
12,3,6,8,5,6,2,4,?,?,?,?,1090,8,1450,5,2410,6,2666,2,2858,{ENTER},
12,3,7,9,6,1,8,5,2,?,?,?,208,2,776,8,1416,1,2400,6,2640,1,2896,{ENTER},
12,3,8,4,2,1,7,6,3,8,?,?,2781,8,4189,4,4813,7,5533,1,5845,2,6157,{ENTER},
12,3,9,8,5,6,3,7,9,1,4,?,195,4,1219,9,2459,3,2923,1,5883,8,6043,2,6275,{ENTER},
12,3,10,6,4,5,8,8,7,1,9,3,1086,3,2573,1,5021,8,5453,7,10205,5,10349,6,10797,{ENTER},
12,3,11,9,4,8,1,4,?,?,?,?,1924,1,6044,8,7260,4,7396,9,7740,{ENTER},
12,3,12,2,8,7,5,5,9,?,?,?,1465,2,2049,8,9529,5,9617,9,9865,{ENTER},
12,3,13,9,3,6,1,6,8,4,?,?,898,4,5730,1,7538,9,8178,7,8410,{ENTER},
12,3,14,2,5,9,6,7,1,8,3,?,3734,8,4390,3,6606,6,9662,5,10038,2,10630,{ENTER},
12,3,15,7,3,6,4,8,9,5,8,1,3969,1,5377,4,6665,9,6873,8,7161,2,7353,{ENTER},
12,5,1,3,4,6,8,4,?,?,?,?,1116,8,1676,6,1996,4,2364,3,3076,{ENTER},
12,5,2,2,6,9,8,5,7,?,?,?,354,7,874,8,1218,9,1474,6,1818,2,5370,{ENTER},
12,5,3,1,4,3,6,6,8,5,?,?,433,5,713,8,1081,6,1321,3,1585,4,1785,1,2665,{ENTER},
12,5,4,3,7,4,5,7,8,1,6,?,546,6,1218,1,4314,5,4610,8,4922,7,5210,4,5450,3,6010,{ENTER},
12,5,5,1,8,4,3,8,5,2,9,7,1144,7,2031,2,2855,9,3799,8,5079,3,7439,6,8415,4,9207,1,10671,{ENTER},
12,5,6,8,5,6,2,4,?,?,?,?,3678,2,3990,6,4238,5,4422,8,5278,{ENTER},
12,5,7,9,6,1,8,5,2,?,?,?,207,8,511,1,1159,6,1359,9,10319,2,11183,{ENTER},
12,5,8,4,2,1,7,6,3,8,?,?,7932,3,8340,8,8772,7,11732,1,12188,2,12404,4,13212,{ENTER},
12,5,9,8,5,6,3,7,9,1,4,?,1337,4,1857,1,2305,9,2713,3,9993,6,10697,5,10945,8,11681,{ENTER},
12,5,10,6,4,5,8,8,7,1,9,3,906,3,1402,9,1810,1,5474,7,5986,8,7594,5,8474,4,8914,6,10698,{ENTER},
12,5,11,9,4,8,1,4,?,?,?,?,3376,1,3696,8,3968,4,4152,9,6712,{ENTER},
12,5,12,2,8,7,5,5,9,?,?,?,1390,9,1654,5,1909,7,2158,8,2421,2,3173,{ENTER},
12,5,13,9,3,6,1,6,8,4,?,?,850,4,2954,8,4418,1,8346,6,8674,3,8906,9,9650,{ENTER},
12,5,14,2,5,9,6,7,1,8,3,?,838,3,1478,8,3198,1,4414,6,4814,9,8742,5,9174,2,10166,{ENTER},
12,5,15,7,3,6,4,8,9,5,8,1,919,1,1383,8,1751,5,2071,9,2415,4,2775,3,3055,6,3335,7,4095,{ENTER},
12,6,1,3,4,6,8,4,?,?,?,?,1526,8,1990,6,2654,4,3270,3,4006,{ENTER},
12,6,2,2,6,9,8,5,7,?,?,?,701,7,1013,8,1397,1,1853,6,2189,2,3565,{ENTER},
12,6,3,1,4,3,6,6,8,5,?,?,842,5,1186,8,2082,6,2330,4,2746,3,2994,1,3706,{ENTER},
12,6,4,3,7,4,5,7,8,1,6,?,1360,6,1720,1,2320,8,2648,1,2936,4,3240,7,3752,3,4864,{ENTER},
12,6,5,1,8,4,3,8,5,2,9,7,1900,7,2492,3,3044,5,3364,8,3716,4,3724,5,5108,4,5396,8,5708,1,6396,{ENTER},
12,6,6,8,5,6,2,4,?,?,?,?,1645,2,2309,6,2733,5,3013,8,3589,{ENTER},
12,6,7,9,6,1,8,5,2,?,?,?,1767,2,2215,8,2551,1,2871,6,3231,1,3631,{ENTER},
12,6,8,4,2,1,7,6,3,8,?,?,1247,8,1655,3,2015,7,2351,1,2663,2,2911,4,3487,{ENTER},
12,6,9,8,5,6,3,7,9,1,4,?,696,4,1032,1,1392,9,1680,8,3496,6,3800,8,4096,1,4504,{ENTER},
12,6,10,6,4,5,8,8,7,1,9,3,1947,3,2395,1,2571,1,4323,3,4707,7,5035,6,6235,{ENTER},
12,6,11,9,4,8,1,4,?,?,?,?,1474,1,1794,8,2130,4,2394,1,2802,{ENTER},
12,6,12,2,8,7,5,5,9,?,?,?,645,9,933,5,1181,7,1405,8,1701,2,2117,{ENTER},
12,6,13,9,3,6,1,6,8,4,?,?,346,4,506,8,938,1,2674,6,3034,9,3378,3,3914,{ENTER},
12,6,14,2,5,9,6,7,1,8,3,?,791,3,1111,1,1447,8,1687,5,2559,6,3079,9,4663,{ENTER},
12,6,15,7,3,6,4,8,9,5,8,1,660,9,932,5,3604,9,4036,6,4380,3,4740,7,5220,{ENTER},
12,8,1,3,4,6,8,4,?,?,?,?,3249,8,5345,6,7201,4,7489,3,8409,{ENTER},
12,8,2,2,6,9,8,5,7,?,?,?,2413,7,4005,8,4493,9,5805,6,6221,2,6765,{ENTER},
12,8,3,1,4,3,6,6,8,5,?,?,1452,5,2076,8,4228,6,4548,4,5484,3,5796,1,6364,{ENTER},
12,8,4,3,7,4,5,7,8,1,6,?,3938,6,5202,1,6098,8,8970,6,9394,4,10634,3,11209,1,11890,{ENTER},
12,8,5,1,8,4,3,8,5,2,9,7,1933,7,2397,9,8405,8,12221,7,12733,4,13645,1,15925,{ENTER},
12,8,6,8,5,6,2,4,?,?,?,?,4716,2,8924,6,11068,5,11428,8,12172,{ENTER},
12,8,7,9,6,1,8,5,2,?,?,?,2977,2,6321,1,9673,6,13072,8,13328,9,14080,{ENTER},
12,8,8,4,2,1,7,6,3,8,?,?,3018,8,7570,3,8010,7,11666,1,13418,2,14090,4,14818,{ENTER},
12,8,9,8,5,6,3,7,9,1,4,?,1849,4,2393,9,9609,8,10433,6,10745,4,11193,{ENTER},
12,8,10,6,4,5,8,8,7,1,9,3,1465,3,1921,9,2985,1,8928,9,15912,8,16176,7,17752,6,21360,{ENTER},
12,8,11,9,4,8,1,4,?,?,?,?,3687,1,5655,8,6231,4,7695,9,8439,{ENTER},
12,8,12,2,8,7,5,5,9,?,?,?,1818,9,11394,7,11650,8,12370,2,12834,{ENTER},
12,8,13,9,3,6,1,6,8,4,?,?,2918,4,6261,6,11557,3,15749,9,16173,{ENTER},
12,8,14,2,5,9,6,7,1,8,3,?,4670,3,6158,8,7854,9,10542,7,12918,1,13158,3,13614,{ENTER},
12,8,15,7,3,6,4,8,9,5,8,1,2686,1,3238,8,6862,3,7182,7,11902,{ENTER},
12,9,1,3,4,6,8,4,?,?,?,?,982,8,1486,6,2990,4,3214,3,3790,{ENTER},
12,9,2,2,6,9,8,5,7,?,?,?,1695,7,2079,8,4087,9,5103,6,5479,2,6023,{ENTER},
12,9,3,1,4,3,6,6,8,5,?,?,878,5,4094,6,4590,8,8782,4,9430,1,11982,{ENTER},
12,9,4,3,7,4,5,7,8,1,6,?,3061,6,3597,1,8245,5,14389,6,15573,7,15917,3,16517,{ENTER},
12,9,5,1,8,4,3,8,5,2,9,7,151,7,959,9,3839,8,6375,5,8511,2,9439,1,9983,{ENTER},
12,9,6,8,5,6,2,4,?,?,?,?,2161,2,3697,6,4945,5,5441,8,5897,{ENTER},
12,9,7,9,6,1,8,5,2,?,?,?,960,2,2264,8,3824,1,5392,6,5888,9,6232,{ENTER},
12,9,8,4,2,1,7,6,3,8,?,?,385,8,2417,3,4145,7,6457,4,7345,2,7529,1,8961,{ENTER},
12,9,9,8,5,6,3,7,9,1,4,?,783,4,1175,1,3439,6,3959,7,5847,8,6159,5,6567,{ENTER},
12,9,10,6,4,5,8,8,7,1,9,3,269,3,693,9,1205,1,1677,7,2453,6,2685,5,3621,8,4173,{ENTER},
12,9,11,9,4,8,1,4,?,?,?,?,944,1,2048,8,3144,4,3704,9,4368,{ENTER},
12,9,12,2,8,7,5,5,9,?,?,?,1107,9,3147,5,4627,7,5739,2,6595,8,7499,{ENTER},
12,9,13,9,3,6,1,6,8,4,?,?,985,4,3089,8,3881,1,7649,6,8089,3,8697,9,9041,{ENTER},
12,9,14,2,5,9,6,7,1,8,3,?,1395,3,2811,1,3339,8,5739,9,6299,5,6587,2,7763,{ENTER},
12,9,15,7,3,6,4,8,9,5,8,1,633,1,2785,8,6161,9,7929,5,10689,6,12345,3,12761,7,13089,{ENTER},
1,2,1,3,4,6,8,4,?,?,?,?,3990,8,4574,6,4894,4,5286,3,5590,{ENTER},
1,2,2,2,6,9,8,5,7,?,?,?,10524,7,12124,8,13084,9,13444,6,13724,2,14268,{ENTER},
1,2,3,1,4,3,6,6,8,5,?,?,11390,5,12758,8,13470,6,13870,4,14134,1,14910,{ENTER},
1,2,4,3,7,4,5,7,8,1,6,?,15235,6,15883,1,16523,8,18963,4,19219,5,19483,3,20083,{ENTER},
1,2,5,1,8,4,3,8,5,2,9,7,1908,7,13884,5,20804,8,31251,4,34811,6,35523,1,36027,{ENTER},
1,2,6,8,5,6,2,4,?,?,?,?,6707,2,8259,6,8779,5,9107,8,9467,{ENTER},
1,2,7,9,6,1,8,5,2,?,?,?,6236,2,11924,8,12716,1,13444,6,13860,9,14212,{ENTER},
1,2,8,4,2,1,7,6,3,8,?,?,10562,8,11178,3,12210,1,15850,7,16186,2,16466,4,16778,{ENTER},
1,2,9,8,5,6,3,7,9,1,4,?,8835,1,15803,4,16715,5,20730,3,21530,6,24418,9,24898,8,25954,{ENTER},
1,2,10,6,4,5,8,8,7,1,9,3,33336,7,60383,4,62031,3,63303,1,65407,6,65879,5,66127,8,66431,9,67807,{ENTER},
1,2,11,9,4,8,1,4,?,?,?,?,4185,1,6465,4,8105,8,8281,9,8657,{ENTER},
1,2,12,2,8,7,5,5,9,?,?,?,6970,9,12738,5,13794,8,17578,7,18114,8,18618,2,19010,{ENTER},
1,2,13,9,3,6,1,6,8,4,?,?,8830,4,11238,8,11534,1,14990,6,15766,3,16534,9,16830,{ENTER},
1,2,14,2,5,9,6,7,1,8,3,?,3627,3,4211,8,16099,1,18611,6,31747,9,32451,5,32675,2,33403,{ENTER},
1,2,15,7,3,6,4,8,9,5,8,1,13918,1,20406,9,23094,5,23398,8,26958,6,27614,3,28294,7,29038,{ENTER},
13,10,1,3,4,6,8,4,?,?,?,?,4519,8,5127,6,5551,4,5871,3,8127,{ENTER},
13,10,2,2,6,9,8,5,7,?,?,?,4255,7,4495,8,4767,9,5247,6,5591,2,6991,{ENTER},
13,10,3,1,4,3,6,6,8,5,?,?,2164,5,2996,8,3796,6,7196,3,7764,4,8380,1,10956,{ENTER},
13,10,4,3,7,4,5,7,8,1,6,?,3659,6,4115,8,5363,1,13291,5,17187,4,17515,7,18251,3,21019,{ENTER},
13,10,5,1,8,4,3,8,5,2,9,7,3711,7,4135,9,10702,2,11390,4,11742,5,12606,1,15798,{ENTER},
13,10,6,8,5,6,2,4,?,?,?,?,5930,2,6834,6,7202,5,7482,8,9138,{ENTER},
13,10,7,9,6,1,8,5,2,?,?,?,2112,2,2624,8,4368,1,5136,6,5472,9,6968,{ENTER},
13,10,8,4,2,1,7,6,3,8,?,?,3461,8,4101,3,10605,7,12365,1,12765,2,13005,4,14573,{ENTER},
13,10,9,8,5,6,3,7,9,1,4,?,1350,4,1750,1,3918,9,4558,3,6990,5,7318,6,7654,8,10790,{ENTER},
13,10,10,6,4,5,8,8,7,1,9,3,1108,3,2124,9,4468,1,6892,7,7396,8,11820,4,13828,2,13932,3,14740,{ENTER},
13,10,11,9,4,8,1,4,?,?,?,?,2395,1,2995,8,7283,4,7835,9,10171,{ENTER},
13,10,12,2,8,7,5,5,9,?,?,?,2959,5,10727,9,12127,7,12287,8,12639,2,14391,{ENTER},
13,10,13,9,3,6,1,6,8,4,?,?,918,4,1822,8,3078,3,3710,6,4182,9,5838,1,9182,{ENTER},
13,10,14,2,5,9,6,7,1,8,3,?,8787,3,9275,1,9835,6,10251,8,10563,9,10931,5,11235,2,13019,{ENTER},
13,10,15,7,3,6,4,8,9,5,8,1,10746,1,11114,3,12258,8,12618,5,12962,4,13290,6,20489,3,20817,2,21681,7,21801,9,22505,{ENTER},
13,11,1,3,4,6,8,4,?,?,?,?,2533,8,3589,6,4845,4,5140,1,5340,{ENTER},
13,11,2,2,6,9,8,5,7,?,?,?,694,7,1134,8,2982,9,3950,6,4262,2,4630,{ENTER},
13,11,3,1,4,3,6,6,8,5,?,?,1390,8,2846,5,3502,1,3918,3,4206,7,4478,{ENTER},
13,11,4,3,7,4,5,7,8,1,6,?,261,6,773,1,1181,8,2541,4,4165,5,4453,7,4773,{ENTER},
13,11,5,1,8,4,3,8,5,2,9,7,1409,7,1761,9,2273,2,2761,8,3081,6,4825,2,5393,6,5689,{ENTER},
13,11,6,8,5,6,2,4,?,?,?,?,9261,2,10109,6,11213,5,11453,8,11709,{ENTER},
13,11,7,9,6,1,8,5,2,?,?,?,12586,2,15577,8,16353,1,16857,6,17113,9,17377,{ENTER},
13,11,8,4,2,1,7,6,3,8,?,?,858,8,1410,3,2154,7,4306,3,4506,1,4722,{ENTER},
13,11,9,8,5,6,3,7,9,1,4,?,814,4,1262,1,1982,9,5974,5,6222,6,6486,{ENTER},
13,11,10,6,4,5,8,8,7,1,9,3,1038,3,1670,9,2422,1,2854,7,4285,3,4549,{ENTER},
13,11,11,9,4,8,1,4,?,?,?,?,2382,1,2990,8,4710,4,4894,9,5110,{ENTER},
13,11,12,2,8,7,5,5,9,?,?,?,4154,9,4610,5,5074,7,5834,8,6586,2,6850,{ENTER},
13,11,13,9,3,6,1,6,8,4,?,?,529,4,777,8,1065,1,1313,9,1569,6,1809,{ENTER},
13,11,14,2,5,9,6,7,1,8,3,?,320,3,608,1,880,8,1168,6,1416,5,1648,{ENTER},
13,11,15,7,3,6,4,8,9,5,8,1,104,8,352,9,648,5,928,7,1392,6,1624,4,1840,{ENTER},
13,5,1,3,4,6,8,4,?,?,?,?,7647,8,8991,6,10279,4,10711,3,14007,{ENTER},
13,5,2,2,6,9,8,5,7,?,?,?,2160,7,2440,8,6624,9,9120,6,9336,2,11592,{ENTER},
13,5,3,1,4,3,6,6,8,5,?,?,10874,5,11162,8,12146,6,13434,4,14594,1,14698,3,15058,{ENTER},
13,5,4,3,7,4,5,7,8,1,6,?,7150,6,7414,8,8862,1,10214,4,14622,3,15158,5,15486,{ENTER},
13,5,5,1,8,4,3,8,5,2,9,7,4388,7,4828,2,5028,9,7156,1,7404,3,7876,4,8500,8,8788,{ENTER},
13,5,6,8,5,6,2,4,?,?,?,?,5628,2,5836,6,6772,5,6980,8,7316,{ENTER},
13,5,7,9,6,1,8,5,2,?,?,?,2576,2,2832,8,2999,1,3439,9,3807,6,5079,{ENTER},
13,5,8,4,2,1,7,6,3,8,?,?,2389,4,4565,8,4933,2,5741,6,6485,7,7037,{ENTER},
13,5,9,8,5,6,3,7,9,1,4,?,6901,4,7109,1,8037,8,9957,6,10749,2,11133,5,12989,{ENTER},
13,5,10,6,4,5,8,8,7,1,9,3,1490,3,2066,9,2298,1,5666,7,6754,6,6986,8,7290,5,8178,{ENTER},
13,5,11,9,4,8,1,4,?,?,?,?,4497,1,4665,8,4921,4,5073,9,5513,{ENTER},
13,5,12,2,8,7,5,5,9,?,?,?,6683,9,6915,5,14251,7,15387,8,15539,2,15755,{ENTER},
13,5,13,9,3,6,1,6,8,4,?,?,4678,4,4782,8,7094,9,7294,1,12038,6,12270,8,12534,{ENTER},
13,5,14,2,5,9,6,7,1,8,3,?,1283,3,5619,8,8043,6,14107,9,14819,1,15115,2,15787,{ENTER},
13,5,15,7,3,6,4,8,9,5,8,1,2920,1,3184,8,4480,5,4896,6,5688,2,6824,7,8600,{ENTER},
13,6,1,3,4,6,8,4,?,?,?,?,6749,8,6925,6,7117,4,7325,3,8053,{ENTER},
13,6,2,2,6,9,8,5,7,?,?,?,1788,7,1932,8,2132,9,2348,6,2548,2,4388,{ENTER},
13,6,3,1,4,3,6,6,8,5,?,?,4477,5,4645,8,6957,6,7181,3,8765,4,8973,1,11821,{ENTER},
13,6,4,3,7,4,5,7,8,1,6,?,4280,6,4464,3,8280,8,9144,7,9384,4,9592,3,13656,{ENTER},
13,6,5,1,8,4,3,8,5,2,9,7,3219,7,3483,1,17227,5,18907,8,20195,3,20539,8,24675,{ENTER},
13,6,6,8,5,6,2,4,?,?,?,?,3051,2,3323,6,3507,5,3643,8,4387,{ENTER},
13,6,7,9,6,1,8,5,2,?,?,?,12133,2,12301,1,12565,8,14237,6,14421,9,17013,{ENTER},
13,6,8,4,2,1,7,6,3,8,?,?,4896,8,5176,3,5456,7,16768,1,16952,2,17312,4,21215,{ENTER},
13,6,9,8,5,6,3,7,9,1,4,?,8764,4,8972,1,9196,9,12828,3,13004,6,13196,5,13340,8,15428,{ENTER},
13,6,10,6,4,5,8,8,7,1,9,3,2534,3,2701,1,5365,7,5461,8,6645,6,7445,4,8197,5,12197,{ENTER},
13,6,11,9,4,8,1,4,?,?,?,?,3558,1,3742,8,4902,4,5046,9,6462,{ENTER},
13,6,12,2,8,7,5,5,9,?,?,?,21250,9,24002,5,26298,8,27866,7,28202,2,29442,{ENTER},
13,6,13,9,3,6,1,6,8,4,?,?,3789,4,3997,1,4357,8,14749,6,15005,3,15221,9,17021,{ENTER},
13,6,14,2,5,9,6,7,1,8,3,?,2151,3,5247,1,7775,8,13583,6,13879,9,16071,5,16271,2,18471,{ENTER},
13,6,15,7,3,6,4,8,9,5,8,1,1315,1,1475,8,5963,9,8954,8,9354,1,10338,{ENTER},
13,8,1,3,4,6,8,4,?,?,?,?,3816,8,4584,6,5360,4,5616,3,8144,{ENTER},
13,8,2,2,6,9,8,5,7,?,?,?,1484,7,6772,8,7372,9,9412,6,9684,2,11804,{ENTER},
13,8,3,1,4,3,6,6,8,5,?,?,1861,8,2733,5,3285,4,3573,6,3973,1,4445,{ENTER},
13,8,4,3,7,4,5,7,8,1,6,?,1310,1,1734,6,2046,4,2549,8,3566,5,4557,{ENTER},
13,8,5,1,8,4,3,8,5,2,9,7,1223,7,2023,2,2519,9,3103,5,3527,8,4183,2,4735,{ENTER},
13,8,6,8,5,6,2,4,?,?,?,?,3777,2,4113,6,5329,5,5633,8,6993,{ENTER},
13,8,7,9,6,1,8,5,2,?,?,?,1000,2,1775,9,5287,8,11031,6,12095,{ENTER},
13,8,8,4,2,1,7,6,3,8,?,?,917,8,1717,3,2069,7,2885,1,3149,4,3581,{ENTER},
13,8,9,8,5,6,3,7,9,1,4,?,1824,4,2176,9,3848,1,4568,3,4968,7,5368,{ENTER},
13,8,10,6,4,5,8,8,7,1,9,3,2474,3,2738,1,3338,9,5482,5,6882,6,7354,4,7818,{ENTER},
13,8,11,9,4,8,1,4,?,?,?,?,3157,8,3605,1,4501,4,4965,9,6469,{ENTER},
13,8,12,2,8,7,5,5,9,?,?,?,1282,9,1650,5,6009,2,6377,7,6705,{ENTER},
13,8,13,9,3,6,1,6,8,4,?,?,2196,4,2588,8,3276,6,3676,1,5260,{ENTER},
13,8,14,2,5,9,6,7,1,8,3,?,1254,3,1646,8,2254,1,2742,6,4334,5,4950,{ENTER},
13,8,15,7,3,6,4,8,9,5,8,1,1044,1,1516,8,2308,7,2596,9,2908,5,3620,{ENTER},
13,9,1,3,4,6,8,4,?,?,?,?,12387,8,12795,6,13091,4,13411,3,15323,{ENTER},
13,9,2,2,6,9,8,5,7,?,?,?,18019,7,18539,8,19307,9,20387,2,20667,6,24259,{ENTER},
13,9,3,1,4,3,6,6,8,5,?,?,365,1,669,4,1165,3,1677,6,2053,8,2461,5,5117,5,9205,{ENTER},
13,9,4,3,7,4,5,7,8,1,6,?,1323,3,1699,7,1963,4,3051,5,3347,8,4235,1,4571,7,4891,6,7099,{ENTER},
13,9,5,1,8,4,3,8,5,2,9,7,190,1,742,8,1094,4,1918,3,2342,9,2910,2,3278,7,3910,{ENTER},
13,9,6,8,5,6,2,4,?,?,?,?,1054,8,1366,5,1638,6,1942,2,2438,{ENTER},
13,9,7,9,6,1,8,5,2,?,?,?,58,6,634,1,1010,8,1354,2,1458,2,2658,{ENTER},
13,9,8,4,2,1,7,6,3,8,?,?,160,7,1160,2,1688,1,2448,7,3104,3,3496,8,4112,{ENTER},
13,9,9,8,5,6,3,7,9,1,4,?,3183,8,3487,5,3823,6,5271,3,5679,9,6183,1,6439,4,7615,{ENTER},
13,9,10,6,4,5,8,8,7,1,9,3,1576,6,1984,4,2512,5,2808,8,3104,7,3512,1,4320,9,4648,3,8824,{ENTER},
13,9,11,9,4,8,1,4,?,?,?,?,1620,9,1892,4,2348,8,2660,1,3324,{ENTER},
13,9,12,2,8,7,5,5,9,?,?,?,833,2,1201,8,1745,7,2889,9,3169,5,4889,{ENTER},
13,9,13,9,3,6,1,6,8,4,?,?,663,9,1351,3,1639,6,2047,8,3335,1,3631,4,4367,{ENTER},
13,9,14,2,5,9,6,7,1,8,3,?,318,5,1702,2,3142,9,3614,6,4038,1,4358,8,4702,3,4966,{ENTER},
13,9,15,7,3,6,4,8,9,5,8,1,3126,7,3334,4,4142,9,4542,5,5350,8,6590,1,7198,{ENTER},
1,3,1,3,4,6,8,4,?,?,?,?,871,8,1743,6,2839,4,3031,3,3527,{ENTER},
1,3,2,2,6,9,8,5,7,?,?,?,528,7,752,8,1032,9,1648,2,3672,{ENTER},
1,3,3,1,4,3,6,6,8,5,?,?,255,5,679,8,3015,4,5199,2,5391,1,6015,{ENTER},
1,3,4,3,7,4,5,7,8,1,6,?,164,6,508,1,1124,8,8884,4,9380,7,9652,3,10092,{ENTER},
1,3,5,1,8,4,3,8,5,2,9,7,570,7,994,9,3346,8,6010,4,12290,2,13866,1,14394,{ENTER},
1,3,6,8,5,6,2,4,?,?,?,?,1654,2,10126,6,10934,8,12038,1,12550,{ENTER},
1,3,7,9,6,1,8,5,2,?,?,?,2723,2,4243,9,7027,6,9987,1,13771,{ENTER},
1,3,8,4,2,1,7,6,3,8,?,?,5425,8,5985,7,6785,3,7505,4,8305,2,8897,{ENTER},
1,3,9,8,5,6,3,7,9,1,4,?,1073,4,1521,1,6169,6,7657,7,7809,8,8297,{ENTER},
1,3,10,6,4,5,8,8,7,1,9,3,2210,3,2586,1,4786,9,7178,8,7370,7,7546,6,10434,4,10882,{ENTER},
1,3,11,9,4,8,1,4,?,?,?,?,1081,1,4241,8,4593,9,5033,4,5457,{ENTER},
1,3,12,2,8,7,5,5,9,?,?,?,360,9,1056,5,1760,2,3088,8,3232,7,3720,{ENTER},
1,3,13,9,3,6,1,6,8,4,?,?,1509,4,2085,8,6733,9,8325,3,8509,2,8941,{ENTER},
1,3,14,2,5,9,6,7,1,8,3,?,1037,3,1493,1,2445,8,4173,6,8045,5,8213,4,8397,3,8869,{ENTER},
1,3,15,7,3,6,4,8,9,5,8,1,2127,1,4071,8,4799,7,6927,9,8271,3,8519,4,9055,{ENTER},
14,10,1,3,4,6,8,4,?,?,?,?,3371,8,3459,6,3843,4,4067,3,4523,{ENTER},
14,10,2,2,6,9,8,5,7,?,?,?,4675,8,5178,7,7138,8,7490,9,7914,2,9258,{ENTER},
14,10,3,1,4,3,6,6,8,5,?,?,2996,5,3252,6,3636,8,6100,8,6316,4,6724,1,7076,{ENTER},
14,10,4,3,7,4,5,7,8,1,6,?,1726,6,1854,1,4006,8,4438,4,4622,5,4726,6,5422,{ENTER},
14,10,5,1,8,4,3,8,5,2,9,7,553,7,769,9,1313,2,2313,4,2473,7,2665,5,3105,{ENTER},
14,10,6,8,5,6,2,4,?,?,?,?,4629,2,4876,6,5404,5,5572,8,6508,{ENTER},
14,10,7,9,6,1,8,5,2,?,?,?,5946,2,6306,1,6834,6,8314,8,8570,9,9498,{ENTER},
14,10,8,4,2,1,7,6,3,8,?,?,1058,8,1658,3,2258,7,3866,1,4282,2,4594,4,5234,{ENTER},
14,10,9,8,5,6,3,7,9,1,4,?,1156,4,1412,1,1764,3,2932,6,3260,1,3540,8,4212,{ENTER},
14,10,10,6,4,5,8,8,7,1,9,3,1594,3,1978,9,2425,1,2985,7,3633,5,3817,6,4049,8,4441,{ENTER},
14,10,11,9,4,8,1,4,?,?,?,?,2959,1,3231,8,3455,4,3671,9,4079,{ENTER},
14,10,12,2,8,7,5,5,9,?,?,?,2069,9,2445,5,2709,7,2917,8,3245,2,3645,{ENTER},
14,10,13,9,3,6,1,6,8,4,?,?,4254,4,4478,1,4766,6,5022,8,5262,9,5622,3,7742,{ENTER},
14,10,14,2,5,9,6,7,1,8,3,?,381,3,805,8,1109,1,1453,6,1757,5,2093,9,2421,4,3261,{ENTER},
14,10,15,7,3,6,4,8,9,5,8,1,1160,1,2488,8,3976,5,4280,9,5008,3,5272,6,5568,7,6112,{ENTER},
14,11,1,3,4,6,8,4,?,?,?,?,991,8,1247,6,1487,4,1767,3,2119,{ENTER},
14,11,2,2,6,9,8,5,7,?,?,?,41,7,281,8,513,9,769,6,1025,2,1353,{ENTER},
14,11,3,1,4,3,6,6,8,5,?,?,261,6,565,3,829,5,1045,4,1253,1,1621,{ENTER},
14,11,4,3,7,4,5,7,8,1,6,?,427,1,771,5,1643,7,1947,4,2235,8,2603,6,7635,3,9755,{ENTER},
14,11,5,1,8,4,3,8,5,2,9,7,573,7,957,9,1453,2,2029,5,2957,3,3581,1,4685,{ENTER},
14,11,6,8,5,6,2,4,?,?,?,?,928,2,1200,6,1424,5,1624,8,1896,{ENTER},
14,11,7,9,6,1,8,5,2,?,?,?,210,2,466,1,698,8,978,6,1154,9,1458,{ENTER},
14,11,8,4,2,1,7,6,3,8,?,?,275,8,563,3,923,7,1355,2,1619,1,2659,{ENTER},
14,11,9,8,5,6,3,7,9,1,4,?,1442,4,1642,1,2442,3,2682,6,3122,9,3314,5,3490,8,3698,{ENTER},
14,11,10,6,4,5,8,8,7,1,9,3,751,6,999,5,1223,4,1719,7,1951,8,2159,1,2415,3,2711,{ENTER},
14,11,11,9,4,8,1,4,?,?,?,?,3396,1,3660,4,3892,8,4116,9,4532,{ENTER},
14,11,12,2,8,7,5,5,9,?,?,?,534,9,2214,7,2750,8,3046,5,3318,2,3838,{ENTER},
14,11,13,9,3,6,1,6,8,4,?,?,154,8,410,4,658,1,1354,3,1602,6,1834,9,2170,{ENTER},
14,11,14,2,5,9,6,7,1,8,3,?,33,3,321,8,641,1,2201,2,2529,6,2761,9,3121,{ENTER},
14,11,15,7,3,6,4,8,9,5,8,1,2185,1,3073,8,3345,5,4521,9,4873,7,5585,6,5921,3,6857,{ENTER},
14,5,1,3,4,6,8,4,?,?,?,?,5009,8,5465,6,5889,4,6401,3,7001,{ENTER},
14,5,2,2,6,9,8,5,7,?,?,?,10181,7,10573,8,10965,9,11525,6,11973,2,12661,{ENTER},
14,5,3,1,4,3,6,6,8,5,?,?,20933,5,21469,8,22029,6,22741,3,23149,4,23477,1,25589,{ENTER},
14,5,4,3,7,4,5,7,8,1,6,?,13424,6,20656,1,26744,8,28592,5,28888,4,31872,7,32384,3,35016,{ENTER},
14,5,5,1,8,4,3,8,5,2,9,7,10607,7,11431,9,18895,2,19199,5,30407,3,31039,4,31823,8,32183,1,34943,{ENTER},
14,5,6,8,5,6,2,4,?,?,?,?,15644,2,15996,6,16252,5,16492,8,19668,{ENTER},
14,5,7,9,6,1,8,5,2,?,?,?,7080,2,7528,8,8040,1,10552,6,10784,9,12280,{ENTER},
14,5,8,4,2,1,7,6,3,8,?,?,5612,8,6244,3,6812,7,14572,1,14844,2,15132,4,16724,{ENTER},
14,5,9,8,5,6,3,7,9,1,4,?,3353,4,3833,1,11913,9,12361,3,20393,6,21152,5,21385,8,25088,{ENTER},
14,5,10,6,4,5,8,8,7,1,9,3,9709,3,10125,9,10669,1,16493,7,23205,8,28429,5,28877,4,29485,6,31805,{ENTER},
14,5,11,9,4,8,1,4,?,?,?,?,9263,1,9767,8,10183,4,10551,9,13191,{ENTER},
14,5,12,2,8,7,5,5,9,?,?,?,9968,9,10352,5,14176,7,15976,8,16304,2,17944,{ENTER},
14,5,13,9,3,6,1,6,8,4,?,?,3755,4,4091,8,4691,1,9163,6,9403,3,9691,9,11451,{ENTER},
14,5,14,2,5,9,6,7,1,8,3,?,3265,3,3665,8,4081,1,8721,6,10369,9,10641,5,10921,2,12984,{ENTER},
14,5,15,7,3,6,4,8,9,5,8,1,3802,1,4330,8,11130,9,11930,5,16026,4,19378,6,19674,3,20098,7,22930,{ENTER},
14,8,1,3,4,6,8,4,?,?,?,?,2390,8,2662,6,2942,4,3197,3,3653,{ENTER},
14,8,2,2,6,9,8,5,7,?,?,?,589,7,645,8,789,9,1109,6,1357,2,1709,{ENTER},
14,8,3,1,4,3,6,6,8,5,?,?,546,5,738,8,1010,6,1226,3,1578,4,1842,1,2242,{ENTER},
14,8,4,3,7,4,5,7,8,1,6,?,467,6,747,1,995,8,1267,5,1571,4,1779,7,2075,3,2515,{ENTER},
14,8,5,1,8,4,3,8,5,2,9,7,750,7,1054,9,1598,2,4718,8,5974,6,6278,3,6678,4,6862,5,7150,1,7566,{ENTER},
14,8,6,8,5,6,2,4,?,?,?,?,2196,2,2428,6,2604,5,2884,8,3348,{ENTER},
14,8,7,9,6,1,8,5,2,?,?,?,110,2,294,8,550,1,1054,6,1302,9,1654,{ENTER},
14,8,8,4,2,1,7,6,3,8,?,?,756,8,1012,3,2452,7,4043,4,4347,1,4595,2,4939,{ENTER},
14,8,9,8,5,6,3,7,9,1,4,?,742,4,1006,1,1286,9,1654,3,2022,6,2254,5,2462,8,2838,{ENTER},
14,8,10,6,4,5,8,8,7,1,9,3,617,3,873,9,1169,1,1472,7,2808,8,3016,4,3264,5,3672,6,4088,{ENTER},
14,8,11,9,4,8,1,4,?,?,?,?,3507,1,3803,8,4043,4,4235,9,4859,{ENTER},
14,8,12,2,8,7,5,5,9,?,?,?,712,9,928,5,1184,7,1408,8,1664,2,1904,{ENTER},
14,8,13,9,3,6,1,6,8,4,?,?,588,4,756,8,1044,1,2652,6,2852,3,3076,9,3636,{ENTER},
14,8,14,2,5,9,6,7,1,8,3,?,658,3,922,8,1210,1,3922,9,4162,6,4426,5,4650,2,6594,{ENTER},
14,8,15,7,3,6,4,8,9,5,8,1,925,1,1173,8,1453,5,2573,7,2797,4,3061,9,4749,3,5029,{ENTER},
14,9,1,3,4,6,8,4,?,?,?,?,1758,8,2110,6,3958,4,4110,3,4766,{ENTER},
14,9,2,2,6,9,8,5,7,?,?,?,2023,7,2471,8,5718,9,6239,6,6566,2,7262,{ENTER},
14,9,3,1,4,3,6,6,8,5,?,?,1066,5,1314,4,1514,6,1738,7,1954,8,2362,5,3202,{ENTER},
14,9,4,3,7,4,5,7,8,1,6,?,842,6,1178,1,1546,7,1746,8,2234,5,2450,6,3066,6,7409,{ENTER},
14,9,5,1,8,4,3,8,5,2,9,7,1038,7,1254,9,1614,4,1822,6,2358,2,2614,5,2814,8,3534,{ENTER},
14,9,6,8,5,6,2,4,?,?,?,?,2560,2,2768,6,3048,4,4632,8,5128,{ENTER},
14,9,7,9,6,1,8,5,2,?,?,?,3233,2,3625,8,4001,1,4617,6,4817,9,7105,{ENTER},
14,9,8,4,2,1,7,6,3,8,?,?,1261,8,1629,9,2685,3,2981,5,3309,7,3717,{ENTER},
14,9,9,8,5,6,3,7,9,1,4,?,1016,1,1272,1,1560,1,1808,1,2072,1,2312,1,2552,1,3064,{ENTER},
14,9,10,6,4,5,8,8,7,1,9,3,776,9,1008,8,1280,5,1528,4,1864,2,2152,5,2392,4,2624,6,2960,8,3720,{ENTER},
14,9,11,9,4,8,1,4,?,?,?,?,1394,1,1914,8,2874,2,3258,5,3874,{ENTER},
14,9,12,2,8,7,5,5,9,?,?,?,1008,7,1144,8,1192,9,1768,5,1848,4,1936,6,2608,{ENTER},
14,9,13,9,3,6,1,6,8,4,?,?,656,4,976,1,1072,8,1584,6,1792,3,1800,{ENTER},
14,9,14,2,5,9,6,7,1,8,3,?,1127,3,1535,1,1535,4,2759,4,2983,6,2999,5,3135,6,4335,{ENTER},
14,9,15,7,3,6,4,8,9,5,8,1,893,1,1269,8,1597,5,1941,4,1981,5,2613,6,2637,5,3581,{ENTER},
1,4,1,3,4,6,8,4,?,?,?,?,3329,8,3785,6,5345,4,5601,3,6769,{ENTER},
1,4,2,2,6,9,8,5,7,?,?,?,3916,7,4332,8,4828,9,6572,6,7036,2,11292,{ENTER},
1,4,3,1,4,3,6,6,8,5,?,?,6013,8,6333,5,6661,6,7013,3,7349,4,7669,1,8645,{ENTER},
1,4,4,3,7,4,5,7,8,1,6,?,12681,6,13049,8,13777,1,14345,7,14993,5,15249,4,15569,3,16249,{ENTER},
1,4,5,1,8,4,3,8,5,2,9,7,5158,7,5614,1,5902,2,9310,5,9606,4,10126,3,12774,8,14838,{ENTER},
1,4,6,8,5,6,2,4,?,?,?,?,4422,8,15078,6,15422,5,15806,8,18502,{ENTER},
1,4,7,9,6,1,8,5,2,?,?,?,7174,2,7493,8,7837,1,8189,6,8470,9,9037,{ENTER},
1,4,8,4,2,1,7,6,3,8,?,?,6236,8,6684,3,7124,7,20132,1,20620,2,20980,4,21644,{ENTER},
1,4,9,8,5,6,3,7,9,1,4,?,15120,4,15528,3,15856,1,19616,6,19936,9,20160,8,21080,{ENTER},
1,4,10,6,4,5,8,8,7,1,9,3,5961,3,6385,7,6873,9,9617,1,9977,4,10201,5,10417,6,11041,{ENTER},
1,4,11,9,4,8,1,4,?,?,?,?,8317,1,12061,8,12749,4,12845,9,13413,{ENTER},
1,4,12,2,8,7,5,5,9,?,?,?,3529,9,4018,5,4585,7,4729,8,5089,2,5969,{ENTER},
1,4,13,9,3,6,1,6,8,4,?,?,2072,4,2152,8,2400,1,8984,6,9264,3,9528,9,11160,{ENTER},
1,4,14,2,5,9,6,7,1,8,3,?,808,3,1672,8,2016,1,9639,6,10175,4,10639,2,14375,{ENTER},
1,4,15,7,3,6,4,8,9,5,8,1,325,1,597,8,901,9,1605,6,4549,7,4989,5,5261,4,6581,3,7165,{ENTER},
15,10,1,3,4,6,8,4,?,?,?,?,1592,6,1704,5,2384,4,2664,3,3296,{ENTER},
15,10,2,2,6,9,8,5,7,?,?,?,1452,7,1564,9,2028,6,2284,2,2740,{ENTER},
15,10,3,1,4,3,6,6,8,5,?,?,3676,5,3788,6,4516,3,4692,4,5332,1,6916,{ENTER},
15,10,4,3,7,4,5,7,8,1,6,?,1201,3,8265,7,8641,4,8809,5,9009,1,9177,6,9745,{ENTER},
15,10,5,1,8,4,3,8,5,2,9,7,2934,7,3390,9,3910,2,7190,5,7518,4,7758,3,7958,1,8718,{ENTER},
15,10,6,8,5,6,2,4,?,?,?,?,4560,2,4840,5,4936,6,5528,{ENTER},
15,10,7,9,6,1,8,5,2,?,?,?,1597,2,1717,1,2629,6,2765,9,3469,{ENTER},
15,10,8,4,2,1,7,6,3,8,?,?,3538,3,6306,7,6658,1,7298,2,7474,4,8010,{ENTER},
15,10,9,8,5,6,3,7,9,1,4,?,3749,4,4413,1,6717,9,7429,3,8245,6,8389,5,9685,{ENTER},
15,10,10,6,4,5,8,8,7,1,9,3,2852,3,10796,9,11164,1,17147,5,17995,7,18347,4,18531,6,20467,{ENTER},
15,10,11,9,4,8,1,4,?,?,?,?,1657,1,1793,4,1969,9,2425,{ENTER},
15,10,12,2,8,7,5,5,9,?,?,?,1694,5,1838,7,3502,9,3726,2,5078,{ENTER},
15,10,13,9,3,6,1,6,8,4,?,?,7740,1,7932,4,8068,6,8284,3,8556,9,9460,{ENTER},
15,10,14,2,5,9,6,7,1,8,3,?,2165,3,4549,1,4837,5,5037,6,5989,2,6405,9,6741,{ENTER},
15,10,15,7,3,6,4,8,9,5,8,1,196,1,9988,5,11172,9,15300,4,15732,6,16484,3,16724,7,18708,{ENTER},
1,5,1,3,4,6,8,4,?,?,?,?,2209,8,2889,6,4185,4,4545,3,4945,{ENTER},
1,5,2,2,6,9,8,5,7,?,?,?,3731,7,6211,8,6627,9,9547,6,9819,2,10259,{ENTER},
1,5,3,1,4,3,6,6,8,5,?,?,3270,5,4902,8,9238,6,11782,3,17477,4,17773,1,18869,{ENTER},
1,5,4,3,7,4,5,7,8,1,6,?,1020,6,8068,8,8324,5,9508,4,9724,1,10084,{ENTER},
1,5,5,1,8,4,3,8,5,2,9,7,2125,7,2309,9,14005,4,19069,8,22477,3,24669,4,24861,1,25253,{ENTER},
1,5,6,8,5,6,2,4,?,?,?,?,3186,2,5762,6,7498,5,7810,8,8522,{ENTER},
1,5,7,9,6,1,8,5,2,?,?,?,3288,2,6944,8,10480,1,13096,9,13351,6,13823,{ENTER},
1,5,8,4,2,1,7,6,3,8,?,?,5301,8,9461,2,14141,7,16341,3,16693,4,16973,1,17333,{ENTER},
1,5,9,8,5,6,3,7,9,1,4,?,1830,4,2038,1,21126,1,21598,9,28422,6,28566,8,29358,{ENTER},
1,5,10,6,4,5,8,8,7,1,9,3,3049,3,3321,9,8289,7,8881,8,9761,{ENTER},
1,5,11,9,4,8,1,4,?,?,?,?,4516,1,4860,8,5132,4,5668,9,6164,{ENTER},
1,5,12,2,8,7,5,5,9,?,?,?,4269,9,8333,5,10077,7,10269,8,10749,2,13037,{ENTER},
1,5,13,9,3,6,1,6,8,4,?,?,4033,8,4289,4,6617,3,6865,6,7153,9,7721,{ENTER},
1,5,14,2,5,9,6,7,1,8,3,?,1106,3,11977,5,20897,8,21233,9,21497,6,21825,2,22249,{ENTER},
1,5,15,7,3,6,4,8,9,5,8,1,1245,1,1517,5,1757,8,2237,7,3557,2,4301,6,4509,3,4781,4,5093,{ENTER},
16,10,1,3,4,6,8,4,?,?,?,?,2027,8,2643,6,3083,4,3403,3,3891,{ENTER},
16,10,2,2,6,9,8,5,7,?,?,?,2237,7,2453,8,4197,9,5117,6,5333,2,5797,{ENTER},
16,10,3,1,4,3,6,6,8,5,?,?,1046,5,2566,8,3470,6,3966,3,5014,4,5230,1,5838,{ENTER},
16,10,4,3,7,4,5,7,8,1,6,?,1286,6,1566,1,1790,8,4222,5,11453,4,11693,7,12589,3,13293,{ENTER},
16,10,5,1,8,4,3,8,5,2,9,7,1991,7,2079,9,9263,8,13455,5,13687,3,13927,4,14711,{ENTER},
16,10,6,8,5,6,2,4,?,?,?,?,4834,2,5634,6,8458,5,8642,8,10002,{ENTER},
16,10,7,9,6,1,8,5,2,?,?,?,2105,2,2193,8,4849,1,6537,6,6753,9,7281,{ENTER},
16,10,8,4,2,1,7,6,3,8,?,?,980,8,1556,3,2772,7,3244,1,5428,2,5636,4,7124,{ENTER},
16,10,9,8,5,6,3,7,9,1,4,?,1185,4,1409,1,3233,9,6456,3,8656,6,8904,5,9072,8,10784,{ENTER},
16,10,10,6,4,5,8,8,7,1,9,3,1132,3,1252,9,1820,1,3852,7,5244,8,6612,5,7972,4,8228,6,9900,{ENTER},
16,10,11,9,4,8,1,4,?,?,?,?,1748,1,2988,8,3572,4,3756,9,4748,{ENTER},
16,10,12,2,8,7,5,5,9,?,?,?,985,9,1057,5,2713,7,2905,8,3209,2,4425,{ENTER},
16,10,13,9,3,6,1,6,8,4,?,?,2318,4,2398,8,4566,1,5014,6,6598,3,6798,9,7910,{ENTER},
16,10,14,2,5,9,6,7,1,8,3,?,1178,3,1418,8,1730,1,11914,6,12082,9,12282,8,12282,5,14593,2,17105,{ENTER},
16,10,15,7,3,6,4,8,9,5,8,1,1874,1,1986,8,5106,6,13482,8,13842,6,14890,4,15130,7,16746,{ENTER},
1,6,1,3,4,6,8,4,?,?,?,?,1880,8,2288,6,2520,4,2832,3,3160,{ENTER},
1,6,2,2,6,9,8,5,7,?,?,?,466,7,698,8,882,9,1274,6,1642,2,1962,{ENTER},
1,6,3,1,4,3,6,6,8,5,?,?,636,5,1020,8,2779,6,3155,3,3499,4,3827,1,4435,{ENTER},
1,6,4,3,7,4,5,7,8,1,6,?,422,6,694,1,1054,8,1302,5,1510,4,1718,7,2422,3,2750,{ENTER},
1,6,5,1,8,4,3,8,5,2,9,7,731,7,1027,9,1986,2,3538,5,3963,8,4274,4,4498,1,4794,3,5026,{ENTER},
1,6,6,8,5,6,2,4,?,?,?,?,1747,2,1979,6,2187,5,2339,8,2627,{ENTER},
1,6,7,9,6,1,8,5,2,?,?,?,397,2,653,8,1157,1,1413,6,1653,9,2509,{ENTER},
1,6,8,4,2,1,7,6,3,8,?,?,602,8,874,3,1194,7,1506,2,2314,4,2482,1,2722,{ENTER},
1,6,9,8,5,6,3,7,9,1,4,?,352,4,912,1,1232,9,1616,3,1912,6,2128,5,2288,8,2584,{ENTER},
1,6,10,6,4,5,8,8,7,1,9,3,172,3,692,9,1060,1,1436,7,2012,8,2684,5,2860,4,3028,6,3284,{ENTER},
1,6,11,9,4,8,1,4,?,?,?,?,2856,1,3048,8,3200,4,3360,9,3656,{ENTER},
1,6,12,2,8,7,5,5,9,?,?,?,408,9,648,5,4368,7,4648,8,5432,2,5807,{ENTER},
1,6,13,9,3,6,1,6,8,4,?,?,955,4,1131,8,1403,1,4587,6,4843,3,5051,9,5387,{ENTER},
1,6,14,2,5,9,6,7,1,8,3,?,791,3,1151,8,1887,1,2151,5,2431,6,2735,9,3039,{ENTER},
1,6,15,7,3,6,4,8,9,5,8,1,769,1,1049,8,1481,5,1737,9,1969,4,2209,7,2481,6,2689,3,2873,{ENTER},
17,10,1,3,4,6,8,4,?,?,?,?,3382,8,4558,6,6518,4,6870,3,7934,{ENTER},
17,10,2,2,6,9,8,5,7,?,?,?,4845,7,11589,8,14773,9,15269,6,15797,2,16741,{ENTER},
17,10,3,1,4,3,6,6,8,5,?,?,7450,5,12666,8,13098,6,16282,4,16674,3,17554,1,18594,{ENTER},
17,10,4,3,7,4,5,7,8,1,6,?,4219,6,4755,1,6723,8,24090,7,25034,5,25386,3,26818,{ENTER},
17,10,5,1,8,4,3,8,5,2,9,7,1643,7,4299,9,20514,5,21562,4,23626,8,24314,1,25394,{ENTER},
17,10,6,8,5,6,2,4,?,?,?,?,5813,2,7181,6,7901,5,8669,8,9613,{ENTER},
17,10,7,9,6,1,8,5,2,?,?,?,5327,2,8407,1,10015,6,10655,8,10942,9,12798,{ENTER},
17,10,8,4,2,1,7,6,3,8,?,?,8269,8,10165,3,10885,1,18605,2,19253,7,19661,4,20469,{ENTER},
17,10,9,8,5,6,3,7,9,1,4,?,1930,4,2562,9,3938,1,8906,5,9858,7,10162,8,12330,{ENTER},
17,10,10,6,4,5,8,8,7,1,9,3,3908,3,4500,9,5036,1,9884,7,12068,4,12476,5,12716,6,16260,{ENTER},
17,10,11,9,4,8,1,4,?,?,?,?,5628,1,7268,8,8060,4,8676,9,9580,{ENTER},
17,10,12,2,8,7,5,5,9,?,?,?,2000,9,7808,5,9160,7,9488,8,10008,2,10880,{ENTER},
17,10,13,9,3,6,1,6,8,4,?,?,1609,4,7432,8,8136,1,12808,6,13112,3,13736,9,14536,{ENTER},
17,10,14,2,5,9,6,7,1,8,3,?,1707,3,2435,8,3099,1,5195,9,5651,6,5971,5,7123,{ENTER},
17,10,15,7,3,6,4,8,9,5,8,1,1517,1,2277,8,3037,5,4780,9,9516,6,10996,4,13244,3,14348,{ENTER},
1,7,1,3,4,6,8,4,?,?,?,?,4367,8,4623,6,4895,4,5246,3,5495,{ENTER},
1,7,2,2,6,9,8,5,7,?,?,?,5922,7,6282,8,6714,9,7082,6,7490,2,7866,{ENTER},
1,7,3,1,4,3,6,6,8,5,?,?,1914,5,2098,8,2394,3,2746,6,3114,4,3290,1,3594,{ENTER},
1,7,4,3,7,4,5,7,8,1,6,?,1501,6,1941,1,3501,5,3717,4,3925,7,4269,3,4501,{ENTER},
1,7,5,1,8,4,3,8,5,2,9,7,1693,7,2101,9,2492,2,2933,8,3405,4,6308,2,6580,1,6892,{ENTER},
1,7,6,8,5,6,2,4,?,?,?,?,1073,2,1297,6,1473,5,1817,8,2401,{ENTER},
1,7,7,9,6,1,8,5,2,?,?,?,6146,2,6434,8,6738,1,7074,6,7330,9,7674,{ENTER},
1,7,8,4,2,1,7,6,3,8,?,?,1914,8,2290,3,2730,7,3146,1,3538,4,4098,{ENTER},
1,7,9,8,5,6,3,7,9,1,4,?,705,4,897,1,1473,9,1769,3,1985,6,2209,5,2385,8,2697,{ENTER},
1,7,10,6,4,5,8,8,7,1,9,3,287,3,631,9,975,1,1343,7,1535,8,2263,4,2439,6,2719,5,3031,{ENTER},
1,7,11,9,4,8,1,4,?,?,?,?,4693,1,4877,8,5029,4,5605,9,6285,{ENTER},
1,7,12,2,8,7,5,5,9,?,?,?,1250,9,1594,5,1930,7,2186,8,2530,2,2866,{ENTER},
1,7,13,9,3,6,1,6,8,4,?,?,7834,8,8074,4,8322,1,11634,6,11882,3,12154,9,12482,{ENTER},
1,7,14,2,5,9,6,7,1,8,3,?,490,8,778,3,1082,1,3322,9,3506,6,3730,2,4002,{ENTER},
1,7,15,7,3,6,4,8,9,5,8,1,4063,1,4255,8,4471,5,4695,9,10478,6,10718,4,10902,7,11590,{ENTER},
1,8,1,3,4,6,8,4,?,?,?,?,2095,8,3183,6,4183,4,4311,3,4823,{ENTER},
1,8,2,2,6,9,8,5,7,?,?,?,2263,7,6671,8,8807,9,9527,6,9903,2,10359,{ENTER},
1,8,3,1,4,3,6,6,8,5,?,?,9100,5,13212,8,13956,6,17924,4,20956,3,22028,1,24396,{ENTER},
1,8,4,3,7,4,5,7,8,1,6,?,1814,6,2246,1,15382,7,23590,4,23694,3,24430,{ENTER},
1,8,5,1,8,4,3,8,5,2,9,7,7533,7,7837,9,10581,5,11021,8,13885,3,14093,4,14301,1,14781,{ENTER},
1,8,6,8,5,6,2,4,?,?,?,?,4081,2,6177,6,6465,5,7105,8,7425,{ENTER},
1,8,7,9,6,1,8,5,2,?,?,?,1212,2,3524,8,7140,1,8756,6,9020,9,10140,{ENTER},
1,8,8,4,2,1,7,6,3,8,?,?,6019,3,9507,8,9691,7,24755,1,25011,2,25267,4,25827,{ENTER},
1,8,9,8,5,6,3,7,9,1,4,?,4186,1,6258,8,6490,9,7114,3,11938,8,12554,6,12650,4,13026,{ENTER},
1,8,10,6,4,5,8,8,7,1,9,3,97,4,1665,7,1985,6,2104,5,2521,{ENTER},
1,8,11,9,4,8,1,4,?,?,?,?,1114,1,2322,8,3122,4,3450,9,3730,{ENTER},
1,8,12,2,8,7,5,5,9,?,?,?,863,9,4751,5,7295,7,8991,8,9415,2,9799,{ENTER},
1,8,13,9,3,6,1,6,8,4,?,?,4769,4,11561,8,12969,1,15497,6,15969,3,16457,9,16809,{ENTER},
1,8,14,2,5,9,6,7,1,8,3,?,1800,3,2224,8,2672,1,5624,5,6712,6,7080,2,7696,{ENTER},
1,8,15,7,3,6,4,8,9,5,8,1,5066,1,5506,8,8338,4,9146,5,11065,6,11321,7,11745,{ENTER},
1,9,1,3,4,6,8,4,?,?,?,?,3977,8,8425,6,10201,4,10689,3,11537,{ENTER},
1,9,2,2,6,9,8,5,7,?,?,?,1951,7,6055,8,9191,9,10919,6,11727,2,12503,{ENTER},
1,9,3,1,4,3,6,6,8,5,?,?,3398,5,10894,8,17310,6,19702,3,20710,4,21174,1,21974,{ENTER},
1,9,4,3,7,4,5,7,8,1,6,?,9342,8,9878,7,10782,1,11326,5,11590,4,12526,{ENTER},
1,9,5,1,8,4,3,8,5,2,9,7,1499,7,6483,9,7059,5,7827,8,8731,1,9555,{ENTER},
1,9,6,8,5,6,2,4,?,?,?,?,2351,2,6135,6,6631,5,7199,8,8047,{ENTER},
1,9,7,9,6,1,8,5,2,?,?,?,6573,2,7285,8,8301,1,11237,6,11765,9,12541,{ENTER},
1,9,8,4,2,1,7,6,3,8,?,?,1797,8,2397,3,8429,7,9157,1,10117,4,10988,{ENTER},
1,9,9,8,5,6,3,7,9,1,4,?,5274,4,9834,1,10490,9,10994,3,18034,5,18490,8,18754,6,19602,{ENTER},
1,9,10,6,4,5,8,8,7,1,9,3,2218,3,7442,4,7634,4,7858,5,8050,6,8370,6,8586,5,9538,{ENTER},
1,9,11,9,4,8,1,4,?,?,?,?,2774,1,4885,8,6021,4,6693,9,7997,{ENTER},
1,9,12,2,8,7,5,5,9,?,?,?,1486,9,4486,7,5630,8,7910,4,8150,2,9078,{ENTER},
1,9,13,9,3,6,1,6,8,4,?,?,10082,4,10962,8,15330,1,17874,3,18458,6,18922,9,19522,{ENTER},
1,9,14,2,5,9,6,7,1,8,3,?,1293,3,2237,8,7820,1,8524,5,12228,9,12740,2,13228,{ENTER},
1,9,15,7,3,6,4,8,9,5,8,1,945,1,1609,8,8521,4,11608,7,11928,6,12312,9,12968,{ENTER},
2,10,1,3,4,6,8,4,?,?,?,?,1871,8,3783,6,8487,4,9535,3,10223,{ENTER},
2,10,2,2,6,9,8,5,7,?,?,?,12960,7,16872,6,18472,9,23327,8,24983,2,25679,{ENTER},
2,10,3,1,4,3,6,6,8,5,?,?,3502,{ENTER},
2,10,4,3,7,4,5,7,8,1,6,?,2269,6,2725,1,4741,{ENTER},
2,10,5,1,8,4,3,8,5,2,9,7,1138,9,3146,2,3866,7,5698,8,6106,1,7858,{ENTER},
2,10,6,8,5,6,2,4,?,?,?,?,2904,2,4664,6,7840,5,12951,8,14183,{ENTER},
2,10,7,9,6,1,8,5,2,?,?,?,3795,2,6563,1,10115,6,14531,8,14843,9,15451,{ENTER},
2,10,8,4,2,1,7,6,3,8,?,?,5278,3,5566,7,7854,8,8006,1,8950,{ENTER},
2,10,9,8,5,6,3,7,9,1,4,?,2621,4,3149,8,4125,9,5901,{ENTER},
2,10,10,6,4,5,8,8,7,1,9,3,1284,9,1620,7,2100,3,2948,{ENTER},
2,10,11,9,4,8,1,4,?,?,?,?,5957,1,12269,8,12621,4,12853,9,13445,{ENTER},
2,10,12,2,8,7,5,5,9,?,?,?,5365,9,9045,7,12813,5,13365,8,13853,2,15261,{ENTER},
2,10,13,9,3,6,1,6,8,4,?,?,4216,4,5112,8,5504,1,5864,6,6376,{ENTER},
2,10,14,2,5,9,6,7,1,8,3,?,2796,3,3140,8,3324,1,3932,{ENTER},
2,10,15,7,3,6,4,8,9,5,8,1,1719,1,2327,9,2783,8,3423,5,3863,3,4111,1,4743,{ENTER},
2,11,1,3,4,6,8,4,?,?,?,?,2782,8,3230,6,3982,4,4318,3,4662,{ENTER},
2,11,2,2,6,9,8,5,7,?,?,?,1957,7,3077,8,3533,9,5261,6,5477,2,5725,{ENTER},
2,11,3,1,4,3,6,6,8,5,?,?,2240,5,2480,8,5008,6,5232,3,6816,4,6992,1,7288,{ENTER},
2,11,4,3,7,4,5,7,8,1,6,?,4095,6,4391,1,4695,8,7495,7,7719,4,8879,5,9063,3,9319,{ENTER},
2,11,5,1,8,4,3,8,5,2,9,7,1167,7,6807,9,17239,5,19511,2,19831,4,22935,8,23639,1,24383,{ENTER},
2,11,6,8,5,6,2,4,?,?,?,?,4773,2,5405,6,9477,5,9717,8,14053,{ENTER},
2,11,7,9,6,1,8,5,2,?,?,?,2047,2,16183,8,16823,1,26190,6,26494,9,26822,{ENTER},
2,11,8,4,2,1,7,6,3,8,?,?,3228,8,4300,7,4964,3,6716,2,6868,4,7124,{ENTER},
2,11,9,8,5,6,3,7,9,1,4,?,6906,4,13074,1,13498,9,18370,3,18722,6,24018,5,24178,9,24410,{ENTER},
2,11,10,6,4,5,8,8,7,1,9,3,1913,3,2385,9,2849,5,3329,7,3905,8,4208,1,4376,{ENTER},
2,11,11,9,4,8,1,4,?,?,?,?,2224,1,2560,8,6512,4,8192,9,11072,{ENTER},
2,11,12,2,8,7,5,5,9,?,?,?,2272,9,4520,5,8184,7,10775,8,11375,2,12095,{ENTER},
2,11,13,9,3,6,1,6,8,4,?,?,1576,4,3480,8,6856,1,10952,6,13536,3,13736,9,14264,{ENTER},
2,11,14,2,5,9,6,7,1,8,3,?,3378,3,6818,8,10058,1,10346,6,17002,9,18986,5,19218,2,19434,{ENTER},
2,11,15,7,3,6,4,8,9,5,8,1,1154,1,1458,5,1802,8,2274,9,2874,3,3170,6,3370,1,3682,{ENTER},
2,2,1,3,4,6,8,4,?,?,?,?,4084,8,4932,4,5356,6,5588,3,6372,{ENTER},
2,2,2,2,6,9,8,5,7,?,?,?,19686,7,19910,8,20238,9,20542,6,20798,2,22894,{ENTER},
2,2,3,1,4,3,6,6,8,5,?,?,28874,5,31762,8,32658,6,34002,3,34482,4,34690,1,37002,{ENTER},
2,2,4,3,7,4,5,7,8,1,6,?,3384,3,7672,6,7968,1,10112,7,10400,8,11632,3,12672,{ENTER},
2,2,5,1,8,4,3,8,5,2,9,7,14324,7,14564,9,15331,2,29171,5,29371,4,29635,8,29963,1,30651,{ENTER},
2,2,6,8,5,6,2,4,?,?,?,?,12921,2,13185,6,13825,5,14001,8,14937,{ENTER},
2,2,7,9,6,1,8,5,2,?,?,?,6511,2,6735,8,8607,1,9271,6,9455,9,11063,{ENTER},
2,2,8,4,2,1,7,6,3,8,?,?,2258,1,18634,8,22450,3,23186,7,25298,1,25490,2,25866,4,28513,{ENTER},
2,2,9,8,5,6,3,7,9,1,4,?,19016,4,19256,1,24080,9,25424,5,27648,6,27840,3,28120,8,30376,{ENTER},
2,2,10,6,4,5,8,8,7,1,9,3,10221,3,11437,7,11981,9,16917,4,18469,5,20701,6,22117,{ENTER},
2,2,11,9,4,8,1,4,?,?,?,?,4494,1,4590,8,4766,4,4982,9,6134,{ENTER},
2,2,12,2,8,7,5,5,9,?,?,?,7281,9,9761,5,12841,7,12937,8,14121,2,15241,{ENTER},
2,2,13,9,3,6,1,6,8,4,?,?,6620,4,7580,8,8508,1,9396,6,9668,3,10020,9,12036,{ENTER},
2,2,14,2,5,9,6,7,1,8,3,?,6440,3,6752,8,8288,1,13776,6,14096,9,14368,5,14584,2,16960,{ENTER},
2,2,15,7,3,6,4,8,9,5,8,1,2603,1,2755,8,4603,5,8034,6,8226,3,8826,9,9098,7,11410,{ENTER},
2,3,1,3,4,6,8,4,?,?,?,?,2813,8,5101,6,5621,4,5877,3,6781,{ENTER},
2,3,2,2,6,9,8,5,7,?,?,?,4480,7,8056,8,8376,9,8984,6,10040,2,11008,{ENTER},
2,3,3,1,4,3,6,6,8,5,?,?,5250,5,6066,8,10218,6,10986,4,11410,3,11754,1,13554,{ENTER},
2,3,4,3,7,4,5,7,8,1,6,?,4681,6,14089,1,14553,4,18033,3,18497,7,18897,8,19593,{ENTER},
2,3,5,1,8,4,3,8,5,2,9,7,5598,7,6854,9,9310,8,10710,4,11366,3,11638,2,12438,{ENTER},
2,3,6,8,5,6,2,4,?,?,?,?,3575,2,7687,6,8127,5,8559,8,9335,{ENTER},
2,3,7,9,6,1,8,5,2,?,?,?,4226,2,8106,8,9962,6,10674,1,11146,9,11538,{ENTER},
2,3,8,4,2,1,7,6,3,8,?,?,2697,8,8369,6,13473,2,14945,7,16305,1,16609,4,17489,{ENTER},
2,3,9,8,5,6,3,7,9,1,4,?,4042,4,4554,1,11346,9,18777,3,19249,7,23745,2,25193,8,25841,{ENTER},
2,3,10,6,4,5,8,8,7,1,9,3,1440,3,2056,0,5336,1,17384,6,20408,3,21320,7,24608,4,25608,8,26488,{ENTER},
2,3,11,9,4,8,1,4,?,?,?,?,3475,1,5323,8,7283,4,7659,9,8155,{ENTER},
2,3,12,2,8,7,5,5,9,?,?,?,2509,9,10997,5,11421,7,12925,8,13365,2,14165,{ENTER},
2,3,13,9,3,6,1,6,8,4,?,?,4539,4,4963,1,7123,8,9859,6,10331,3,10787,9,11187,{ENTER},
2,3,14,2,5,9,6,7,1,8,3,?,2488,3,3176,8,16912,6,22055,1,22647,9,24951,2,25343,2,28143,{ENTER},
2,3,15,7,3,6,4,8,9,5,8,1,728,1,1456,8,2040,5,2648,9,12328,2,13160,{ENTER},
2,5,1,3,4,6,8,4,?,?,?,?,983,4,1319,3,1823,8,2183,6,8695,{ENTER},
2,5,2,2,6,9,8,5,7,?,?,?,989,7,1381,9,1813,6,2285,8,2669,2,3421,{ENTER},
2,5,3,1,4,3,6,6,8,5,?,?,1070,5,1374,8,2318,6,4126,4,4414,3,4622,1,5014,{ENTER},
2,5,4,3,7,4,5,7,8,1,6,?,5170,6,5690,1,6186,5,7354,7,8098,8,10890,6,11090,3,11298,{ENTER},
2,5,5,1,8,4,3,8,5,2,9,7,785,7,1697,9,2393,2,3193,{ENTER},
2,5,6,8,5,6,2,4,?,?,?,?,1290,2,1602,6,2290,5,2482,8,2906,{ENTER},
2,5,7,9,6,1,8,5,2,?,?,?,1527,2,3759,1,4015,8,4831,6,5039,9,5823,{ENTER},
2,5,8,4,2,1,7,6,3,8,?,?,864,8,1448,3,1976,7,2344,1,4936,2,5152,4,5880,{ENTER},
2,5,9,8,5,6,3,7,9,1,4,?,768,4,2600,1,2784,9,4472,6,4696,8,5808,1,6000,3,6232,{ENTER},
2,5,10,6,4,5,8,8,7,1,9,3,1467,3,1835,9,3995,{ENTER},
2,5,11,9,4,8,1,4,?,?,?,?,3643,1,5859,8,6443,4,6747,9,7171,{ENTER},
2,5,12,2,8,7,5,5,9,?,?,?,742,9,1302,5,1590,7,3933,2,4381,8,6901,{ENTER},
2,5,13,9,3,6,1,6,8,4,?,?,1109,4,1373,8,1765,1,1973,6,8245,9,8541,1,9325,{ENTER},
2,5,14,2,5,9,6,7,1,8,3,?,1476,3,1788,8,2092,1,2859,6,3099,9,5595,5,5819,2,6115,{ENTER},
2,5,15,7,3,6,4,8,9,5,8,1,907,1,1099,8,1371,9,1643,5,2947,{ENTER},
2,6,1,3,4,6,8,4,?,?,?,?,2748,8,3692,6,4572,4,5044,3,5324,{ENTER},
2,6,2,2,6,9,8,5,7,?,?,?,2048,7,2536,9,3072,8,3488,6,3880,{ENTER},
2,6,3,1,4,3,6,6,8,5,?,?,2615,5,3063,8,3503,6,4319,4,5951,3,6295,1,6559,{ENTER},
2,6,4,3,7,4,5,7,8,1,6,?,7453,6,9165,8,13485,4,17053,7,17397,5,18541,1,19013,{ENTER},
2,6,5,1,8,4,3,8,5,2,9,7,1669,9,5325,7,6197,2,9117,4,10213,5,10829,3,10997,{ENTER},
2,6,6,8,5,6,2,4,?,?,?,?,3389,2,3885,5,4429,6,4789,8,5317,{ENTER},
2,6,7,9,6,1,8,5,2,?,?,?,2162,2,2938,8,3514,1,4482,6,4970,9,5490,{ENTER},
2,6,8,4,2,1,7,6,3,8,?,?,2056,8,2504,3,4024,7,6176,4,6576,2,6976,{ENTER},
2,6,9,8,5,6,3,7,9,1,4,?,3956,4,4492,1,5532,9,8452,7,9124,3,11076,{ENTER},
2,6,10,6,4,5,8,8,7,1,9,3,2679,3,2855,9,3111,1,4047,7,5759,8,6855,6,7159,{ENTER},
2,6,11,9,4,8,1,4,?,?,?,?,4647,1,5303,8,6903,4,7351,9,7727,{ENTER},
2,6,12,2,8,7,5,5,9,?,?,?,6234,9,7058,5,9210,8,10250,2,10450,1,10938,{ENTER},
2,6,13,9,3,6,1,6,8,4,?,?,2424,4,2736,8,3208,1,6536,6,7664,7,8232,{ENTER},
2,6,14,2,5,9,6,7,1,8,3,?,1571,3,1987,8,2987,1,5995,5,9171,6,9779,{ENTER},
2,6,15,7,3,6,4,8,9,5,8,1,2881,1,3241,8,3513,5,4481,9,7113,2,7769,4,8041,{ENTER},
2,7,1,3,4,6,8,4,?,?,?,?,2813,8,5765,6,7349,4,7621,3,8157,{ENTER},
2,7,2,2,6,9,8,5,7,?,?,?,1946,7,6178,8,9129,9,12161,6,12689,2,13441,{ENTER},
2,7,3,1,4,3,6,6,8,5,?,?,1609,5,1873,8,10913,3,14985,4,15249,1,15841,{ENTER},
2,7,4,3,7,4,5,7,8,1,6,?,662,6,1598,1,11126,8,12302,5,12462,4,19598,1,20054,{ENTER},
2,7,5,1,8,4,3,8,5,2,9,7,1163,7,1427,9,9443,5,9731,4,13163,8,13323,1,13691,{ENTER},
2,7,6,8,5,6,2,4,?,?,?,?,2716,2,5796,6,7820,5,8196,8,9004,{ENTER},
2,7,7,9,6,1,8,5,2,?,?,?,1821,2,3861,8,10149,1,11109,6,11421,9,12229,{ENTER},
2,7,8,4,2,1,7,6,3,8,?,?,4736,8,6024,3,9280,7,9528,1,12112,2,12448,4,12728,{ENTER},
2,7,9,8,5,6,3,7,9,1,4,?,1679,4,1951,1,11535,3,20311,8,21591,5,23951,6,24471,3,25103,{ENTER},
2,7,10,6,4,5,8,8,7,1,9,3,675,3,1123,9,2307,1,9363,8,10211,5,10595,4,14003,7,14571,3,14907,{ENTER},
2,7,11,9,4,8,1,4,?,?,?,?,2203,1,5539,8,7483,4,7675,9,8707,{ENTER},
2,7,12,2,8,7,5,5,9,?,?,?,3648,9,6600,5,7640,7,9824,8,10128,2,10664,{ENTER},
2,7,13,9,3,6,1,6,8,4,?,?,3609,4,7785,8,12008,1,12320,6,15416,3,15720,9,16824,{ENTER},
2,7,14,2,5,9,6,7,1,8,3,?,2724,3,6964,1,14244,8,16260,6,19804,2,22539,5,22707,9,23363,{ENTER},
2,7,15,7,3,6,4,8,9,5,8,1,1007,1,3631,8,10575,9,14007,5,14271,4,23967,{ENTER},
2,8,1,3,4,6,8,4,?,?,?,?,1630,8,2022,6,3014,3,3398,4,3854,{ENTER},
2,8,2,2,6,9,8,5,7,?,?,?,725,7,1173,8,1501,9,2325,2,4421,5,5157,{ENTER},
2,8,3,1,4,3,6,6,8,5,?,?,761,5,1497,8,1921,6,2465,3,3561,1,4472,4,4864,{ENTER},
2,8,4,3,7,4,5,7,8,1,6,?,25,6,441,1,2705,7,3497,4,5513,3,6417,4,6873,{ENTER},
2,8,5,1,8,4,3,8,5,2,9,7,1724,7,2172,9,2996,2,3228,5,4388,4,4563,1,4883,{ENTER},
2,8,6,8,5,6,2,4,?,?,?,?,1080,2,1304,6,1816,5,2048,8,2728,{ENTER},
2,8,7,9,6,1,8,5,2,?,?,?,531,2,931,8,1755,1,1995,6,3163,{ENTER},
2,8,8,4,2,1,7,6,3,8,?,?,765,8,965,7,1349,6,2061,4,2324,1,2540,2,2996,{ENTER},
2,8,9,8,5,6,3,7,9,1,4,?,222,4,526,1,886,9,1214,8,1510,7,1966,6,2262,2,2694,{ENTER},
2,8,10,6,4,5,8,8,7,1,9,3,191,3,519,9,871,1,1167,7,1415,8,2423,4,2631,6,3079,{ENTER},
2,8,11,9,4,8,1,4,?,?,?,?,1058,1,1346,9,2850,4,3082,9,3522,{ENTER},
2,8,12,2,8,7,5,5,9,?,?,?,5709,2,9901,5,10213,7,10749,2,11197,8,12053,{ENTER},
2,8,13,9,3,6,1,6,8,4,?,?,181,4,413,8,1085,9,1341,7,2069,{ENTER},
2,8,14,2,5,9,6,7,1,8,3,?,483,3,723,8,1619,1,2843,9,3107,6,3531,{ENTER},
2,8,15,7,3,6,4,8,9,5,8,1,275,1,443,8,611,5,963,9,1427,6,2611,4,2987,{ENTER},
2,9,1,3,4,6,8,4,?,?,?,?,3478,8,3878,6,4190,4,4558,3,5094,{ENTER},
2,9,2,2,6,9,8,5,7,?,?,?,2819,7,3075,8,3315,9,3603,6,3883,2,4883,{ENTER},
2,9,3,1,4,3,6,6,8,5,?,?,4234,5,4602,8,5250,6,5554,3,24690,4,24922,1,25674,{ENTER},
2,9,4,3,7,4,5,7,8,1,6,?,25318,8,25910,6,26446,1,31062,5,31398,7,31822,3,34894,{ENTER},
2,9,5,1,8,4,3,8,5,2,9,7,20454,7,20910,2,21350,9,29446,1,29734,4,30166,3,30814,{ENTER},
2,9,6,8,5,6,2,4,?,?,?,?,5603,2,5883,6,6139,5,6379,8,6955,{ENTER},
2,9,7,9,6,1,8,5,2,?,?,?,3767,2,4247,8,4615,1,4975,6,5247,9,6047,{ENTER},
2,9,8,4,2,1,7,6,3,8,?,?,17581,8,18133,3,18685,7,24261,2,24501,1,24765,4,25789,{ENTER},
2,9,9,8,5,6,3,7,9,1,4,?,16807,4,17095,1,29623,9,39943,6,42335,3,42775,8,45503,{ENTER},
2,9,10,6,4,5,8,8,7,1,9,3,7818,3,13778,9,14066,8,14362,7,25802,5,26058,4,26354,6,27706,{ENTER},
2,9,11,9,4,8,1,4,?,?,?,?,3372,1,3796,8,4068,4,4364,9,6228,{ENTER},
2,9,12,2,8,7,5,5,9,?,?,?,8043,9,8403,5,8891,7,9203,8,9603,2,10211,{ENTER},
2,9,13,9,3,6,1,6,8,4,?,?,6260,4,6676,8,22452,1,26660,6,27212,3,27588,9,30980,{ENTER},
2,9,14,2,5,9,6,7,1,8,3,?,5871,3,24055,8,35407,1,39790,6,51950,9,52254,5,52550,2,54614,{ENTER},
2,9,15,7,3,6,4,8,9,5,8,1,7960,1,11311,8,15735,9,20471,4,23431,6,28231,3,29295,7,30983,{ENTER},
3,10,1,3,4,6,8,4,?,?,?,?,2429,6,19141,8,25805,4,26005,3,26957,{ENTER},
3,10,2,2,6,9,8,5,7,?,?,?,4344,7,4752,2,6312,9,7200,6,9152,8,9495,{ENTER},
3,10,3,1,4,3,6,6,8,5,?,?,2718,5,2950,8,7614,6,8990,4,9126,3,9918,{ENTER},
3,10,4,3,7,4,5,7,8,1,6,?,3175,1,3847,6,10223,9,10975,3,11191,4,11439,{ENTER},
3,10,5,1,8,4,3,8,5,2,9,7,5557,7,7309,8,9213,3,9485,2,10197,1,10885,{ENTER},
3,10,6,8,5,6,2,4,?,?,?,?,5924,2,9804,6,10332,5,11036,8,12068,{ENTER},
3,10,7,9,6,1,8,5,2,?,?,?,4190,2,8854,8,11174,6,11630,9,13934,{ENTER},
3,10,8,4,2,1,7,6,3,8,?,?,9444,8,15300,3,19964,7,22972,1,24308,4,24588,{ENTER},
3,10,9,8,5,6,3,7,9,1,4,?,7432,4,9168,3,16895,5,17487,8,19975,{ENTER},
3,10,10,6,4,5,8,8,7,1,9,3,7543,9,10487,6,10743,5,11191,4,11655,3,11943,{ENTER},
3,10,11,9,4,8,1,4,?,?,?,?,6348,1,8124,9,28779,3,32299,8,33899,{ENTER},
3,10,12,2,8,7,5,5,9,?,?,?,7240,0,9808,5,16504,7,25760,8,25959,2,28087,{ENTER},
3,10,13,9,3,6,1,6,8,4,?,?,17165,4,21261,1,25309,8,28805,6,32805,3,33501,9,34333,{ENTER},
3,10,14,2,5,9,6,7,1,8,3,?,11371,3,20883,8,25411,5,27707,9,28715,2,29587,{ENTER},
3,10,15,7,3,6,4,8,9,5,8,1,12127,6,12406,4,12654,3,13078,9,13310,1,14230,{ENTER},
3,11,1,3,4,6,8,4,?,?,?,?,2789,8,3773,6,4141,4,4709,3,5061,{ENTER},
3,11,2,2,6,9,8,5,7,?,?,?,965,7,1517,8,2389,9,4765,6,5109,2,5469,{ENTER},
3,11,3,1,4,3,6,6,8,5,?,?,3662,5,6958,8,10390,6,12646,4,13046,3,14822,1,15622,{ENTER},
3,11,4,3,7,4,5,7,8,1,6,?,4270,6,4878,1,5294,8,9334,7,12950,5,13230,4,13718,3,14526,{ENTER},
3,11,5,1,8,4,3,8,5,2,9,7,759,7,1815,9,2479,2,4991,5,8911,3,9583,8,9943,1,10207,{ENTER},
3,11,6,8,5,6,2,4,?,?,?,?,2961,2,3345,6,4473,5,4713,8,5073,{ENTER},
3,11,7,9,6,1,8,5,2,?,?,?,888,2,1296,8,12536,1,12976,6,13528,9,14000,{ENTER},
3,11,8,4,2,1,7,6,3,8,?,?,2421,8,3229,3,12133,1,15813,2,16796,7,17156,4,17900,{ENTER},
3,11,9,8,5,6,3,7,9,1,4,?,744,4,5776,1,7504,9,13232,3,14792,8,15616,6,16008,5,16224,7,16456,{ENTER},
3,11,10,6,4,5,8,8,7,1,9,3,1107,3,5299,9,10739,1,16402,8,23946,4,24146,5,24434,6,24690,{ENTER},
3,11,11,9,4,8,1,4,?,?,?,?,5573,1,5925,8,7581,4,7741,9,8141,{ENTER},
3,11,12,2,8,7,5,5,9,?,?,?,4288,9,4728,5,5152,7,5608,2,6336,8,6696,{ENTER},
3,11,13,9,3,6,1,6,8,4,?,?,7497,4,8105,8,8625,1,9169,3,9721,6,9945,9,10233,{ENTER},
3,11,14,2,5,9,6,7,1,8,3,?,5862,3,6190,8,6598,1,8598,9,9062,6,10270,5,10582,2,10886,{ENTER},
3,11,15,7,3,6,4,8,9,5,8,1,6773,1,7100,8,7340,9,12260,3,12628,6,12916,5,13188,7,13516,{ENTER},
3,2,1,3,4,6,8,4,?,?,?,?,977,8,3168,6,3496,4,3936,3,4352,{ENTER},
3,2,2,2,6,9,8,5,7,?,?,?,3373,7,3733,8,4013,9,5221,6,5557,2,6341,{ENTER},
3,2,3,1,4,3,6,6,8,5,?,?,803,5,1115,8,3339,6,3627,3,4043,4,4259,1,4643,{ENTER},
3,2,4,3,7,4,5,7,8,1,6,?,717,6,1413,1,2397,9,2773,8,3309,7,3565,4,3973,3,4397,{ENTER},
3,2,5,1,8,4,3,8,5,2,9,7,593,7,993,9,1465,2,2073,5,2673,1,3001,3,3369,{ENTER},
3,2,6,8,5,6,2,4,?,?,?,?,954,2,1586,6,2410,5,6194,8,7122,{ENTER},
3,2,7,9,6,1,8,5,2,?,?,?,751,2,1103,1,2015,6,3143,8,3455,9,3967,{ENTER},
3,2,8,4,2,1,7,6,3,8,?,?,770,8,1323,3,1882,7,4114,1,4426,4,5434,{ENTER},
3,2,9,8,5,6,3,7,9,1,4,?,1020,4,4292,7,7060,6,7340,3,8380,8,8596,9,8956,{ENTER},
3,2,10,6,4,5,8,8,7,1,9,3,932,3,1420,9,2164,1,2716,7,5204,4,5428,6,7748,{ENTER},
3,2,11,9,4,8,1,4,?,?,?,?,2422,1,2734,8,3398,4,3926,9,4342,{ENTER},
3,2,12,2,8,7,5,5,9,?,?,?,3403,9,5643,5,6091,7,6931,8,7235,2,7587,{ENTER},
3,2,13,9,3,6,1,6,8,4,?,?,1104,4,7128,8,7560,1,11792,6,12064,3,12312,9,12896,{ENTER},
3,2,14,2,5,9,6,7,1,8,3,?,3185,3,4497,9,12473,6,12993,8,13225,5,13457,2,13841,{ENTER},
3,2,15,7,3,6,4,8,9,5,8,1,752,1,1072,8,4824,3,5752,7,6064,1,8096,2,8328,{ENTER},
3,3,1,3,4,6,8,4,?,?,?,?,74,8,354,6,714,4,890,3,1098,{ENTER},
3,3,2,2,6,9,8,5,7,?,?,?,150,8,1710,6,2030,2,2214,{ENTER},
3,3,3,1,4,3,6,6,8,5,?,?,790,5,1150,8,1486,6,3054,3,3230,4,3542,1,3822,{ENTER},
3,3,4,3,7,4,5,7,8,1,6,?,696,6,1144,1,1600,8,2256,5,2448,6,2872,3,3112,{ENTER},
3,3,5,1,8,4,3,8,5,2,9,7,120,7,376,9,1576,2,2920,4,3128,5,3480,7,3856,1,4072,{ENTER},
3,3,6,8,5,6,2,4,?,?,?,?,486,2,814,6,982,5,1262,8,1526,{ENTER},
3,3,7,9,6,1,8,5,2,?,?,?,322,9,738,1,1722,6,1938,8,2138,{ENTER},
3,3,8,4,2,1,7,6,3,8,?,?,414,3,742,7,1118,1,1293,2,1533,{ENTER},
3,3,9,8,5,6,3,7,9,1,4,?,459,4,539,1,1307,9,3051,3,3275,5,3483,6,3699,{ENTER},
3,3,10,6,4,5,8,8,7,1,9,3,859,9,1443,1,2819,7,3019,8,3451,6,4459,3,4675,4,5019,{ENTER},
3,3,11,9,4,8,1,4,?,?,?,?,3179,1,3579,8,5003,4,5339,9,5523,{ENTER},
3,3,12,2,8,7,5,5,9,?,?,?,352,9,2072,5,2160,7,2888,2,2936,3,3112,{ENTER},
3,3,13,9,3,6,1,6,8,4,?,?,86,4,254,8,510,1,1054,3,1229,6,1422,9,2270,{ENTER},
3,3,14,2,5,9,6,7,1,8,3,?,1109,3,1453,8,1765,1,2029,6,2213,9,2405,5,2941,{ENTER},
3,3,15,7,3,6,4,8,9,5,8,1,409,6,609,3,833,5,1001,9,1409,1,1649,8,2233,{ENTER},
3,4,1,3,4,6,8,4,?,?,?,?,3292,8,6188,6,8620,4,9132,3,13684,{ENTER},
3,4,2,2,6,9,8,5,7,?,?,?,2723,7,6395,8,8619,9,11403,6,12171,2,12843,{ENTER},
3,4,3,1,4,3,6,6,8,5,?,?,1194,5,4474,8,8722,6,12442,3,14698,4,15602,1,16226,{ENTER},
3,4,4,3,7,4,5,7,8,1,6,?,2644,6,13548,8,16476,5,18564,4,18956,1,19180,7,19996,{ENTER},
3,4,5,1,8,4,3,8,5,2,9,7,2741,7,6845,9,7533,3,11205,8,14349,4,14637,1,16477,{ENTER},
3,4,6,8,5,6,2,4,?,?,?,?,4294,2,12766,6,14934,8,15318,1,15766,{ENTER},
3,4,7,9,6,1,8,5,2,?,?,?,1456,2,2808,1,3912,8,4576,6,4944,9,5416,{ENTER},
3,4,8,4,2,1,7,6,3,8,?,?,6272,8,6800,3,10944,1,11408,2,11888,4,12424,{ENTER},
3,4,9,8,5,6,3,7,9,1,4,?,2706,1,3098,1,3954,4,4522,9,5106,6,6450,5,6698,8,7218,{ENTER},
3,4,10,6,4,5,8,8,7,1,9,3,4653,3,5045,9,5461,1,7237,6,9445,7,9789,8,10141,1,10669,{ENTER},
3,4,11,9,4,8,1,4,?,?,?,?,2428,1,4716,8,5956,4,6148,9,6692,{ENTER},
3,4,12,2,8,7,5,5,9,?,?,?,4002,9,7394,5,8770,8,9194,2,9721,{ENTER},
3,4,13,9,3,6,1,6,8,4,?,?,2746,4,4242,1,8674,8,8794,9,9594,{ENTER},
3,4,14,2,5,9,6,7,1,8,3,?,4558,3,5118,8,13406,1,14390,6,18118,9,18446,5,18702,2,19182,{ENTER},
3,4,15,7,3,6,4,8,9,5,8,1,3427,1,4051,8,5003,7,7475,5,8051,9,10003,{ENTER},
3,5,1,3,4,6,8,4,?,?,?,?,3588,8,7588,6,9236,4,9588,3,10108,{ENTER},
3,5,2,2,6,9,8,5,7,?,?,?,7075,7,7851,9,9411,8,11491,6,12123,2,12619,{ENTER},
3,5,3,1,4,3,6,6,8,5,?,?,3295,5,4103,8,4919,6,9270,3,9534,4,9726,1,9998,{ENTER},
3,5,4,3,7,4,5,7,8,1,6,?,1553,6,1809,1,2041,4,3993,3,7545,7,7705,8,7937,{ENTER},
3,5,5,1,8,4,3,8,5,2,9,7,2200,7,2456,9,3384,2,4760,1,4984,3,5176,4,5384,{ENTER},
3,5,6,8,5,6,2,4,?,?,?,?,9410,8,15330,2,15538,5,15730,7,15970,{ENTER},
3,5,7,9,6,1,8,5,2,?,?,?,2064,2,2688,8,3408,6,3640,9,3864,7,4512,{ENTER},
3,5,8,4,2,1,7,6,3,8,?,?,3910,8,4142,4,4398,7,7070,3,7294,2,7550,{ENTER},
3,5,9,8,5,6,3,7,9,1,4,?,2716,4,3004,1,5980,9,8132,8,8372,6,8668,{ENTER},
3,5,10,6,4,5,8,8,7,1,9,3,10818,3,15938,8,16266,6,17250,7,19138,4,19258,9,19482,3,19762,{ENTER},
3,5,11,9,4,8,1,4,?,?,?,?,5408,1,6943,4,7407,8,7631,9,7831,{ENTER},
3,5,12,2,8,7,5,5,9,?,?,?,5754,9,5978,5,12058,8,13762,7,13930,2,14218,{ENTER},
3,5,13,9,3,6,1,6,8,4,?,?,2169,9,2937,3,3233,6,3489,8,3881,1,4065,4,8593,{ENTER},
3,5,14,2,5,9,6,7,1,8,3,?,5582,3,6558,6,7126,8,9734,2,9902,5,10110,9,10414,{ENTER},
3,5,15,7,3,6,4,8,9,5,8,1,2331,1,2571,8,2755,5,2995,6,3611,3,3835,4,3955,9,4203,{ENTER},
3,6,1,3,4,6,8,4,?,?,?,?,6587,8,6971,6,7723,4,8075,3,8379,{ENTER},
3,6,2,2,6,9,8,5,7,?,?,?,6574,7,6830,9,7182,8,7686,6,8078,2,11654,{ENTER},
3,6,3,1,4,3,6,6,8,5,?,?,4001,5,7209,8,11569,6,13809,3,15537,4,15905,1,16569,{ENTER},
3,6,4,3,7,4,5,7,8,1,6,?,4546,6,7426,1,10610,8,13274,5,15794,4,18714,7,22377,3,24265,{ENTER},
3,6,5,1,8,4,3,8,5,2,9,7,6135,7,6447,9,15895,3,19359,5,22271,5,32871,4,34695,8,34815,1,35551,{ENTER},
3,6,6,8,5,6,2,4,?,?,?,?,3048,2,7872,6,8240,5,8456,8,10128,{ENTER},
3,6,7,9,6,1,8,5,2,?,?,?,1342,2,3422,8,6622,1,7758,6,7974,9,9342,{ENTER},
3,6,8,4,2,1,7,6,3,8,?,?,1259,8,3947,3,7419,7,10683,1,12123,2,12338,4,13842,{ENTER},
3,6,9,8,5,6,3,7,9,1,4,?,4750,4,5166,1,5494,9,13926,3,17062,5,17438,6,17774,8,20230,{ENTER},
3,6,10,6,4,5,8,8,7,1,9,3,1533,3,7485,9,7837,1,13612,7,16164,6,18820,5,19060,4,19212,8,20852,{ENTER},
3,6,11,9,4,8,1,4,?,?,?,?,3783,1,6375,8,7247,4,8063,9,9439,{ENTER},
3,6,12,2,8,7,5,5,9,?,?,?,1697,9,5153,5,6305,7,7825,8,8553,2,8985,{ENTER},
3,6,13,9,3,6,1,6,8,4,?,?,4757,4,5317,1,5765,8,8485,3,10373,6,13757,4,13949,9,14389,{ENTER},
3,6,14,2,5,9,6,7,1,8,3,?,3900,3,4292,1,5196,8,8204,6,10556,9,11796,2,11860,5,14876,{ENTER},
3,6,15,7,3,6,4,8,9,5,8,1,1855,1,5823,8,16391,4,18111,6,21143,3,25199,9,26815,4,26959,7,29495,{ENTER},
3,7,1,3,4,6,8,4,?,?,?,?,4695,8,5319,6,5695,4,6255,3,7831,{ENTER},
3,7,2,2,6,9,8,5,7,?,?,?,7823,7,8343,8,15687,9,17007,6,18031,2,20455,{ENTER},
3,7,3,1,4,3,6,6,8,5,?,?,9036,8,10212,5,11004,6,13548,3,13804,4,14388,1,18676,{ENTER},
3,7,4,3,7,4,5,7,8,1,6,?,19526,6,20926,1,23422,8,31126,5,32022,4,36262,7,36782,3,39566,{ENTER},
3,7,5,1,8,4,3,8,5,2,9,7,10708,7,10964,9,34644,2,35212,5,42900,3,45212,4,49396,8,49876,1,55012,{ENTER},
3,7,6,8,5,6,2,4,?,?,?,?,10832,2,12008,6,12872,5,13424,8,14872,{ENTER},
3,7,7,9,6,1,8,5,2,?,?,?,6827,2,8491,8,9235,1,11587,6,12051,9,13667,{ENTER},
3,7,8,4,2,1,7,6,3,8,?,?,4396,8,6860,3,8356,7,13724,1,14028,2,14812,4,17260,{ENTER},
3,7,9,8,5,6,3,7,9,1,4,?,5057,4,5881,1,8185,9,20665,3,21609,6,24089,5,25993,8,28225,{ENTER},
3,7,10,6,4,5,8,8,7,1,9,3,6019,3,6691,9,13627,1,16723,7,16987,8,26683,5,28755,4,29531,6,35107,{ENTER},
3,7,11,9,4,8,1,4,?,?,?,?,7127,1,7855,8,8399,4,10583,9,11359,{ENTER},
3,7,12,2,8,7,5,5,9,?,?,?,8356,9,13252,5,16980,7,17292,8,18484,2,19836,{ENTER},
3,7,13,9,3,6,1,6,8,4,?,?,2507,4,3211,8,11226,1,12834,6,15266,3,15922,9,18890,{ENTER},
3,7,14,2,5,9,6,7,1,8,3,?,6278,3,6774,8,7366,1,12838,6,16430,5,16966,9,17662,2,18526,{ENTER},
3,7,15,7,3,6,4,8,9,5,8,1,15134,1,16470,8,16806,9,23062,5,23230,4,31798,6,32046,7,32654,3,38390,{ENTER},
3,8,1,3,4,6,8,4,?,?,?,?,4638,8,5014,6,5302,4,5590,3,5958,{ENTER},
3,8,2,2,6,9,8,5,7,?,?,?,5211,7,5747,8,6291,9,7379,6,7875,2,8243,{ENTER},
3,8,3,1,4,3,6,6,8,5,?,?,4291,5,5291,8,5827,6,6299,3,7835,4,8043,1,8443,{ENTER},
3,8,4,3,7,4,5,7,8,1,6,?,303,6,623,1,7719,8,10279,4,10799,5,11151,3,11423,{ENTER},
3,8,5,1,8,4,3,8,5,2,9,7,793,7,1145,9,1569,2,3305,8,3873,3,4153,5,4409,1,4905,{ENTER},
3,8,6,8,5,6,2,4,?,?,?,?,2031,2,2375,6,2679,5,2943,8,4631,{ENTER},
3,8,7,9,6,1,8,5,2,?,?,?,1655,2,9311,6,11919,1,12015,8,12119,9,12607,{ENTER},
3,8,8,4,2,1,7,6,3,8,?,?,596,8,1012,3,1356,7,1700,2,2044,4,2388,1,2724,{ENTER},
3,8,9,8,5,6,3,7,9,1,4,?,857,4,1081,1,1329,9,1593,3,2425,6,2625,5,2801,8,3409,{ENTER},
3,8,10,6,4,5,8,8,7,1,9,3,460,3,780,9,1084,1,1420,7,1724,8,6908,5,7076,4,7260,6,7580,{ENTER},
3,8,11,9,4,8,1,4,?,?,?,?,4831,1,5319,8,5703,4,5951,9,6271,{ENTER},
3,8,12,2,8,7,5,5,9,?,?,?,852,9,1604,7,4508,5,5540,8,5780,2,6060,{ENTER},
3,8,13,9,3,6,1,6,8,4,?,?,4164,4,4532,8,4844,1,5364,3,5756,6,6068,9,6380,{ENTER},
3,8,14,2,5,9,6,7,1,8,3,?,448,3,760,8,976,1,1768,6,3184,5,3360,2,3496,9,3768,{ENTER},
3,8,15,7,3,6,4,8,9,5,8,1,524,1,732,8,964,5,1588,4,5196,5,5340,9,5628,{ENTER},
3,9,1,3,4,6,8,4,?,?,?,?,2570,8,4649,6,6065,4,6297,3,7001,{ENTER},
3,9,2,2,6,9,8,5,7,?,?,?,3265,7,4841,8,6377,9,8161,6,8633,2,9689,{ENTER},
3,9,3,1,4,3,6,6,8,5,?,?,2185,5,6017,6,12065,6,16249,2,16729,{ENTER},
3,9,4,3,7,4,5,7,8,1,6,?,10602,6,15450,1,22194,8,25082,5,28978,4,32794,7,38306,3,38858,{ENTER},
3,9,5,1,8,4,3,8,5,2,9,7,6055,7,7983,9,16399,8,21679,2,31319,5,32199,4,35231,3,35679,1,36455,{ENTER},
3,9,6,8,5,6,2,4,?,?,?,?,6110,2,10414,6,12150,5,12925,8,15197,{ENTER},
3,9,7,9,6,1,8,5,2,?,?,?,9011,2,21115,8,29587,2,31211,6,31523,9,32987,{ENTER},
3,9,8,4,2,1,7,6,3,8,?,?,7477,3,11053,7,25397,1,29493,2,29869,4,30685,{ENTER},
3,9,9,8,5,6,3,7,9,1,4,?,10710,4,15406,1,21653,3,22285,9,28733,6,33301,5,33645,8,34021,{ENTER},
3,9,10,6,4,5,8,8,7,1,9,3,2609,9,5985,3,6737,1,7401,8,7857,6,8209,5,8545,4,9121,{ENTER},
3,9,11,9,4,8,1,4,?,?,?,?,3710,1,6422,8,7997,4,8365,9,8717,{ENTER},
3,9,12,2,8,7,5,5,9,?,?,?,1932,9,3908,5,7180,7,12580,8,13052,2,13484,{ENTER},
3,9,13,9,3,6,1,6,8,4,?,?,8295,4,8727,8,9055,1,18063,4,18391,9,19087,3,19319,{ENTER},
3,9,14,2,5,9,6,7,1,8,3,?,2665,3,9913,1,13633,8,18089,6,20089,5,23321,9,23433,2,23809,{ENTER},
3,9,15,7,3,6,4,8,9,5,8,1,194,1,1098,8,3562,9,4474,5,6930,4,7538,1,7913,3,9354,{ENTER},
4,10,1,3,4,6,8,4,?,?,?,?,3323,8,9659,6,10715,4,11331,3,12123,{ENTER},
4,10,2,2,6,9,8,5,7,?,?,?,8490,7,11971,8,14250,9,27402,6,28354,2,29042,{ENTER},
4,10,3,1,4,3,6,6,8,5,?,?,5924,5,9820,6,10308,3,13667,4,14019,1,16123,{ENTER},
4,10,4,3,7,4,5,7,8,1,6,?,19782,6,41893,5,42789,8,48741,7,53101,1,54253,4,54549,3,56869,{ENTER},
4,10,5,1,8,4,3,8,5,2,9,7,1765,7,11149,9,11941,5,18061,8,24421,1,25485,4,25733,3,29357,{ENTER},
4,10,6,8,5,6,2,4,?,?,?,?,4837,2,7221,6,7565,5,8101,8,9909,{ENTER},
4,10,7,9,6,1,8,5,2,?,?,?,1948,2,9108,6,9644,1,17051,8,17419,9,19443,{ENTER},
4,10,8,4,2,1,7,6,3,8,?,?,1698,8,2690,3,12874,7,18738,1,24210,2,24482,4,27001,{ENTER},
4,10,9,8,5,6,3,7,9,1,4,?,8508,4,9012,1,9708,9,25012,6,33467,1,33947,4,34779,8,38099,{ENTER},
4,10,10,6,4,5,8,8,7,1,9,3,1648,3,2312,9,2848,1,3632,7,9536,4,10016,8,10520,{ENTER},
4,10,11,9,4,8,1,4,?,?,?,?,2717,1,7901,8,8349,4,9437,9,11285,{ENTER},
4,10,12,2,8,7,5,5,9,?,?,?,8238,9,15390,7,19533,5,26629,8,27365,2,28917,{ENTER},
4,10,13,9,3,6,1,6,8,4,?,?,1632,4,6808,8,7504,1,10672,6,11056,3,12328,9,13128,{ENTER},
4,10,14,2,5,9,6,7,1,8,3,?,10721,3,11425,9,17241,8,17833,1,18497,7,19017,3,19625,{ENTER},
4,10,15,7,3,6,4,8,9,5,8,1,10161,1,11153,9,11825,5,27009,4,37473,6,38017,3,38585,7,39809,{ENTER},
4,11,1,3,4,6,8,4,?,?,?,?,720,8,1480,6,3776,4,4384,3,5056,{ENTER},
4,11,2,2,6,9,8,5,7,?,?,?,1593,7,2673,8,3441,6,3865,2,4377,9,4833,{ENTER},
4,11,3,1,4,3,6,6,8,5,?,?,1608,5,2360,8,3872,6,4280,4,4528,1,5232,{ENTER},
4,11,4,3,7,4,5,7,8,1,6,?,2130,6,2538,1,3154,8,3682,5,8074,7,8842,3,9146,{ENTER},
4,11,5,1,8,4,3,8,5,2,9,7,1415,7,1799,9,3647,4,4303,1,5183,2,5583,8,6087,{ENTER},
4,11,6,8,5,6,2,4,?,?,?,?,8315,2,8811,6,9155,5,9443,8,9835,{ENTER},
4,11,7,9,6,1,8,5,2,?,?,?,1238,2,2182,8,3493,1,8525,6,8789,3,9853,{ENTER},
4,11,8,4,2,1,7,6,3,8,?,?,2623,8,3295,3,3999,7,8287,2,8543,4,8887,{ENTER},
4,11,9,8,5,6,3,7,9,1,4,?,1201,4,1489,1,2025,9,6665,6,6937,3,7321,8,7689,{ENTER},
4,11,10,6,4,5,8,8,7,1,9,3,931,3,1459,9,2067,1,4171,8,4627,7,5339,6,5787,{ENTER},
4,11,11,9,4,8,1,4,?,?,?,?,3652,1,4036,8,4468,4,4876,9,5236,{ENTER},
4,11,12,2,8,7,5,5,9,?,?,?,3941,9,4421,5,4933,7,5453,8,5917,2,6261,{ENTER},
4,11,13,9,3,6,1,6,8,4,?,?,942,8,1390,4,2398,6,2958,9,3518,1,3942,3,4446,{ENTER},
4,11,14,2,5,9,6,7,1,8,3,?,896,3,1376,1,1848,8,9952,6,10344,7,10976,5,11704,9,12320,{ENTER},
4,11,15,7,3,6,4,8,9,5,8,1,2570,1,3202,8,12633,9,13145,5,13697,3,14497,6,14969,7,15441,{ENTER},
4,3,1,3,4,6,8,4,?,?,?,?,3397,8,3709,6,4077,4,4773,3,5061,{ENTER},
4,3,2,2,6,9,8,5,7,?,?,?,3540,7,4948,8,9780,9,10060,6,10532,2,11348,{ENTER},
4,3,3,1,4,3,6,6,8,5,?,?,2010,5,2146,8,4874,3,5050,4,5402,1,5642,{ENTER},
4,3,4,3,7,4,5,7,8,1,6,?,731,6,1363,1,2059,8,9019,5,9155,7,10427,4,10627,3,10739,{ENTER},
4,3,5,1,8,4,3,8,5,2,9,7,825,7,969,9,13648,8,21712,3,21944,4,22344,2,22536,1,23224,{ENTER},
4,3,6,8,5,6,2,4,?,?,?,?,2269,2,3373,5,4933,8,5157,6,6589,{ENTER},
4,3,7,9,6,1,8,5,2,?,?,?,4950,2,5198,8,6957,1,8389,6,8701,9,9093,{ENTER},
4,3,8,4,2,1,7,6,3,8,?,?,2794,8,3418,3,4010,7,11714,4,12074,2,12266,1,13114,{ENTER},
4,3,9,8,5,6,3,7,9,1,4,?,8229,4,8637,1,12893,9,20229,5,20437,6,24869,3,25245,8,25621,{ENTER},
4,3,10,6,4,5,8,8,7,1,9,3,1111,3,1231,9,6655,1,6799,7,11247,5,11447,4,11615,6,12383,{ENTER},
4,3,11,9,4,8,1,4,?,?,?,?,8216,1,8608,8,9184,4,9440,9,10184,{ENTER},
4,3,12,2,8,7,5,5,9,?,?,?,4212,9,6420,5,11516,7,11692,8,11812,2,12132,{ENTER},
4,3,13,9,3,6,1,6,8,4,?,?,4564,4,8924,8,9084,1,12060,6,12668,3,12836,9,13508,{ENTER},
4,3,14,2,5,9,6,7,1,8,3,?,3659,3,3747,8,12963,1,13715,6,16403,5,16907,2,17491,{ENTER},
4,3,15,7,3,6,4,8,9,5,8,1,2551,1,2695,8,10951,4,11151,5,11407,9,16527,3,16871,7,18831,{ENTER},
4,4,1,3,4,6,8,4,?,?,?,?,1692,8,1988,6,2604,4,3652,3,3924,{ENTER},
4,4,2,2,6,9,8,5,7,?,?,?,742,7,918,8,1118,9,1342,6,1606,{ENTER},
4,4,3,1,4,3,6,6,8,5,?,?,1594,6,1802,8,2490,5,3066,4,3714,1,4009,{ENTER},
4,4,4,3,7,4,5,7,8,1,6,?,3894,6,4510,1,5158,7,5430,6,5958,5,6694,8,6990,{ENTER},
4,4,5,1,8,4,3,8,5,2,9,7,1705,7,3529,9,5288,8,5593,6,5952,5,6344,4,6625,3,7113,{ENTER},
4,4,6,8,5,6,2,4,?,?,?,?,3986,2,4386,6,4930,5,5354,8,5770,{ENTER},
4,4,7,9,6,1,8,5,2,?,?,?,2322,2,3234,8,3818,1,4026,9,4778,2,4938,{ENTER},
4,4,8,4,2,1,7,6,3,8,?,?,5790,8,6654,3,7974,4,8582,2,9438,7,9582,1,9926,{ENTER},
4,4,9,8,5,6,3,7,9,1,4,?,4074,4,4850,1,5282,9,6738,3,7834,6,9170,9,9554,1,9882,{ENTER},
4,4,10,6,4,5,8,8,7,1,9,3,3644,3,4804,9,5948,6,6268,4,7356,8,7548,6,8252,{ENTER},
4,4,11,9,4,8,1,4,?,?,?,?,3955,1,5427,8,5923,4,6107,9,6547,{ENTER},
4,4,12,2,8,7,5,5,9,?,?,?,5998,9,13598,5,14430,7,14806,8,15470,9,15702,{ENTER},
4,4,13,9,3,6,1,6,8,4,?,?,4888,4,5368,8,6584,3,7256,9,7784,4,8032,{ENTER},
4,4,14,2,5,9,6,7,1,8,3,?,6630,3,7598,9,8134,8,8822,2,12166,5,12390,6,13278,3,13630,1,14654,{ENTER},
4,4,15,7,3,6,4,8,9,5,8,1,857,3,1857,7,3481,4,3937,6,6025,8,6153,5,8401,1,8561,9,9361,{ENTER},
4,5,1,3,4,6,8,4,?,?,?,?,2122,8,2402,6,2778,4,3162,3,3874,{ENTER},
4,5,2,2,6,9,8,5,7,?,?,?,1584,7,1944,8,2272,9,2608,6,2952,2,3632,{ENTER},
4,5,3,1,4,3,6,6,8,5,?,?,755,5,1011,8,1347,6,1659,3,2059,4,2419,1,3851,{ENTER},
4,5,4,3,7,4,5,7,8,1,6,?,3149,6,3493,1,4069,8,4405,7,7381,5,7653,4,7957,3,8469,{ENTER},
4,5,5,1,8,4,3,8,5,2,9,7,7431,7,8135,9,14271,5,14607,4,14903,3,18031,1,22207,8,22455,{ENTER},
4,5,6,8,5,6,2,4,?,?,?,?,3290,2,3514,6,3674,5,3842,8,4330,{ENTER},
4,5,7,9,6,1,8,5,2,?,?,?,3068,2,3364,8,3644,1,3972,6,4204,9,8348,{ENTER},
4,5,8,4,2,1,7,6,3,8,?,?,1786,8,2186,3,2546,7,7722,1,7946,2,8162,4,9290,{ENTER},
4,5,9,8,5,6,3,7,9,1,4,?,4992,4,6152,1,9888,3,14872,9,15176,5,15424,6,15720,8,16176,{ENTER},
4,5,10,6,4,5,8,8,7,1,9,3,1721,3,2009,9,2345,1,3145,7,7577,8,8465,6,8785,4,9801,{ENTER},
4,5,11,9,4,8,1,4,?,?,?,?,1523,1,11003,8,11171,4,11363,9,11691,{ENTER},
4,5,12,2,8,7,5,5,9,?,?,?,7546,9,7938,5,9490,7,9706,8,9954,2,11474,{ENTER},
4,5,13,9,3,6,1,6,8,4,?,?,8963,4,9291,1,13171,8,16955,6,17163,3,17603,9,19434,{ENTER},
4,5,14,2,5,9,6,7,1,8,3,?,1352,3,1648,1,1848,8,10512,6,13792,9,14048,5,14272,2,17096,{ENTER},
4,5,15,7,3,6,4,8,9,5,8,1,5186,8,7002,6,7362,3,7610,5,7970,4,8410,7,9154,{ENTER},
4,6,1,3,4,6,8,4,?,?,?,?,488,8,848,6,1704,4,2008,3,2576,{ENTER},
4,6,2,2,6,9,8,5,7,?,?,?,331,7,555,8,1963,6,3051,9,3627,2,4379,{ENTER},
4,6,3,1,4,3,6,6,8,5,?,?,790,5,1046,8,2118,6,3046,3,3350,1,3862,{ENTER},
4,6,4,3,7,4,5,7,8,1,6,?,630,6,934,1,1206,8,2598,5,2830,4,5374,7,5702,3,7310,{ENTER},
4,6,5,1,8,4,3,8,5,2,9,7,697,7,985,9,3865,5,4553,2,10312,1,10624,8,11208,6,12448,3,13168,{ENTER},
4,6,6,8,5,6,2,4,?,?,?,?,1699,2,2699,6,3555,5,3843,8,4355,{ENTER},
4,6,7,9,6,1,8,5,2,?,?,?,1038,2,1382,8,2878,1,3526,6,4150,9,4854,{ENTER},
4,6,8,4,2,1,7,6,3,8,?,?,1892,8,4612,3,5012,7,9788,4,10068,2,10316,1,17188,{ENTER},
4,6,9,8,5,6,3,7,9,1,4,?,2308,4,2572,1,2964,9,10715,5,11987,6,13075,7,13307,8,13875,{ENTER},
4,6,10,6,4,5,8,8,7,1,9,3,791,3,1055,9,1367,1,2087,7,5103,6,5511,5,5703,8,6175,{ENTER},
4,6,11,9,4,8,1,4,?,?,?,?,2920,1,3336,8,4040,9,7216,4,7920,4,15480,{ENTER},
4,6,12,2,8,7,5,5,9,?,?,?,2443,9,2947,7,6123,5,8139,8,8411,2,9419,{ENTER},
4,6,13,9,3,6,1,6,8,4,?,?,1574,4,1974,8,2254,1,4926,3,5190,6,5414,9,5966,{ENTER},
4,6,14,2,5,9,6,7,1,8,3,?,1604,3,1932,1,6052,6,11852,5,12116,8,13804,2,14692,{ENTER},
4,6,15,7,3,6,4,8,9,5,8,1,719,1,1063,8,1759,7,2727,6,2951,5,3903,4,4639,9,5335,{ENTER},
4,7,1,3,4,6,8,4,?,?,?,?,1622,8,5182,6,6222,4,7246,3,8030,{ENTER},
4,7,2,2,6,9,8,5,7,?,?,?,3166,7,3574,8,3966,9,4302,6,4622,2,6662,{ENTER},
4,7,3,1,4,3,6,6,8,5,?,?,4166,5,4598,8,4990,6,5310,3,5710,4,5926,1,10430,{ENTER},
4,7,4,3,7,4,5,7,8,1,6,?,802,6,1154,1,1730,8,1970,5,2282,7,2490,4,2802,3,3994,{ENTER},
4,7,5,1,8,4,3,8,5,2,9,7,1500,7,2188,9,3076,8,7516,3,7764,1,7972,2,8924,{ENTER},
4,7,6,8,5,6,2,4,?,?,?,?,2319,2,2583,6,3311,5,3575,8,6591,{ENTER},
4,7,7,9,6,1,8,5,2,?,?,?,2065,2,5849,8,6313,1,8281,6,8521,9,9609,{ENTER},
4,7,8,4,2,1,7,6,3,8,?,?,5429,8,5701,7,10005,1,10949,2,11293,4,12005,{ENTER},
4,7,9,8,5,6,3,7,9,1,4,?,8153,4,9329,1,14361,3,15449,5,16177,6,16417,8,17529,{ENTER},
4,7,10,6,4,5,8,8,7,1,9,3,2275,3,2819,9,5547,7,5891,1,7051,6,7347,4,8459,{ENTER},
4,7,11,9,4,8,1,4,?,?,?,?,3339,1,4603,8,6875,4,7459,9,8827,{ENTER},
4,7,12,2,8,7,5,5,9,?,?,?,4165,9,6877,5,9269,7,10477,8,10877,2,13077,{ENTER},
4,7,13,9,3,6,1,6,8,4,?,?,1054,4,1214,8,1478,1,6038,3,6294,6,6478,9,7262,{ENTER},
4,7,14,2,5,9,6,7,1,8,3,?,4168,3,4688,8,5080,1,7000,9,7256,5,7496,6,7696,2,11008,{ENTER},
4,7,15,7,3,6,4,8,9,5,8,1,5119,1,5823,8,7191,9,7543,5,13303,3,13655,6,14119,4,14447,7,15183,{ENTER},
4,8,1,3,4,6,8,4,?,?,?,?,1743,8,2143,6,2599,4,2807,3,3399,{ENTER},
4,8,2,2,6,9,8,5,7,?,?,?,1721,7,1977,8,2697,6,3057,2,4169,{ENTER},
4,8,3,1,4,3,6,6,8,5,?,?,3572,5,5924,6,6332,8,8108,3,8700,6,9660,{ENTER},
4,8,4,3,7,4,5,7,8,1,6,?,3679,6,5375,1,6135,8,6871,3,7423,7,7967,{ENTER},
4,8,5,1,8,4,3,8,5,2,9,7,1029,7,1485,9,2253,2,4565,3,5276,8,5820,5,6852,{ENTER},
4,8,6,8,5,6,2,4,?,?,?,?,3211,2,4635,6,5555,5,6011,8,8691,{ENTER},
4,8,7,9,6,1,8,5,2,?,?,?,2673,2,4169,8,5625,6,6265,1,7233,{ENTER},
4,8,8,4,2,1,7,6,3,8,?,?,778,8,1514,3,2274,7,2946,2,3114,1,3778,{ENTER},
4,8,9,8,5,6,3,7,9,1,4,?,3295,1,6231,4,7623,9,7959,8,10047,{ENTER},
4,8,10,6,4,5,8,8,7,1,9,3,2995,3,3787,9,5331,1,6531,5,6763,4,7795,6,7995,7,8627,{ENTER},
4,8,11,9,4,8,1,4,?,?,?,?,5396,1,7988,4,9396,8,9684,9,10148,{ENTER},
4,8,12,2,8,7,5,5,9,?,?,?,2008,9,2840,5,4480,7,4768,8,5576,2,6312,{ENTER},
4,8,13,9,3,6,1,6,8,4,?,?,1959,4,3199,8,8007,1,8871,6,9407,9,9911,3,11311,{ENTER},
4,8,14,2,5,9,6,7,1,8,3,?,2271,3,2999,8,4151,1,4855,5,5159,6,6727,9,7535,{ENTER},
4,8,15,7,3,6,4,8,9,5,8,1,1064,1,1896,8,3024,5,3832,9,4288,4,5208,{ENTER},
4,9,1,3,4,6,8,4,?,?,?,?,1178,8,3114,6,3546,4,3954,3,4386,{ENTER},
4,9,2,2,6,9,8,5,7,?,?,?,3405,7,7765,9,11741,8,12181,6,12501,2,12845,{ENTER},
4,9,3,1,4,3,6,6,8,5,?,?,902,5,1102,8,7310,6,8486,3,8774,4,8942,1,9326,{ENTER},
4,9,4,3,7,4,5,7,8,1,6,?,1070,6,1422,1,3806,8,12541,7,13829,5,14117,3,14685,{ENTER},
4,9,5,1,8,4,3,8,5,2,9,7,1283,7,3459,2,3875,9,4155,5,4547,8,4763,1,6267,{ENTER},
4,9,6,8,5,6,2,4,?,?,?,?,3601,2,5313,6,5648,5,5912,8,6248,{ENTER},
4,9,7,9,6,1,8,5,2,?,?,?,1089,2,3505,8,4921,1,7001,6,7209,9,7609,{ENTER},
4,9,8,4,2,1,7,6,3,8,?,?,660,8,996,3,4972,1,6780,7,7388,2,7620,4,7916,{ENTER},
4,9,9,8,5,6,3,7,9,1,4,?,848,4,1440,1,4544,3,6504,6,7640,5,7832,8,8224,{ENTER},
4,9,10,6,4,5,8,8,7,1,9,3,502,3,902,9,1230,1,3566,6,3893,4,4077,5,4341,7,4653,{ENTER},
4,9,11,9,4,8,1,4,?,?,?,?,3508,1,4284,8,5076,4,5348,9,5700,{ENTER},
4,9,12,2,8,7,5,5,9,?,?,?,717,9,3621,5,4709,7,5445,8,5709,2,6117,{ENTER},
4,9,13,9,3,6,1,6,8,4,?,?,2171,4,2283,8,5995,1,8803,6,9227,3,9531,9,10379,{ENTER},
4,9,14,2,5,9,6,7,1,8,3,?,666,3,3570,1,3874,8,7538,6,7962,9,8650,5,8874,2,9290,{ENTER},
4,9,15,7,3,6,4,8,9,5,8,1,1467,1,1899,8,3659,9,6283,6,6595,3,7059,4,7235,7,7595,{ENTER},
5,10,1,3,4,6,8,4,?,?,?,?,886,8,1246,6,1534,4,1750,3,2606,{ENTER},
5,10,2,2,6,9,8,5,7,?,?,?,957,7,1277,8,1629,6,1901,2,2653,{ENTER},
5,10,3,1,4,3,6,6,8,5,?,?,982,5,1814,8,2318,6,3574,4,4550,3,4654,1,5294,{ENTER},
5,10,4,3,7,4,5,7,8,1,6,?,3687,6,4015,1,12015,8,12463,7,12991,4,13055,3,14167,{ENTER},
5,10,5,1,8,4,3,8,5,2,9,7,823,7,1935,9,2855,2,7231,4,8087,3,8263,1,9151,{ENTER},
5,10,6,8,5,6,2,4,?,?,?,?,3492,2,6220,6,7052,5,7204,8,8868,{ENTER},
5,10,7,9,6,1,8,5,2,?,?,?,2971,2,5115,8,5299,1,6579,6,6763,9,13931,{ENTER},
5,10,8,4,2,1,7,6,3,8,?,?,6160,8,8576,3,10456,7,10680,1,10784,4,11560,{ENTER},
5,10,9,8,5,6,3,7,9,1,4,?,4471,4,8151,1,8535,9,13039,3,16279,6,16399,5,16583,8,17215,{ENTER},
5,10,10,6,4,5,8,8,7,1,9,3,2887,3,6791,1,12887,7,13974,8,15015,5,15198,4,15318,6,15966,{ENTER},
5,10,11,9,4,8,1,4,?,?,?,?,3108,1,3452,8,5780,4,5932,9,6732,{ENTER},
5,10,12,2,8,7,5,5,9,?,?,?,4056,9,6656,5,7024,8,8528,7,8664,2,9776,{ENTER},
5,10,13,9,3,6,1,6,8,4,?,?,6494,4,9270,1,9662,6,12198,8,17134,3,17302,9,17926,{ENTER},
5,10,14,2,5,9,6,7,1,8,3,?,2753,3,9297,8,13209,1,13561,6,16553,9,18929,2,21136,5,21840,{ENTER},
5,10,15,7,3,6,4,8,9,5,8,1,2662,1,5622,8,12190,5,15606,6,17902,9,18302,4,18854,2,20422,{ENTER},
5,11,1,3,4,6,8,4,?,?,?,?,2301,8,2901,6,6885,4,7141,3,7909,{ENTER},
5,11,2,2,6,9,8,5,7,?,?,?,4707,7,6226,8,7298,9,9090,6,9202,2,10026,{ENTER},
5,11,3,1,4,3,6,6,8,5,?,?,2342,5,5366,8,8822,6,11574,3,13694,4,14086,1,17366,{ENTER},
5,11,4,3,7,4,5,7,8,1,6,?,2935,6,8279,1,10359,8,12975,5,17767,4,22063,7,24679,3,27095,{ENTER},
5,11,5,1,8,4,3,8,5,2,9,7,3972,7,12556,9,15899,2,18267,3,25027,5,25547,4,30723,8,30955,1,33107,{ENTER},
5,11,6,8,5,6,2,4,?,?,?,?,2855,2,8807,6,9807,5,10055,8,11191,{ENTER},
5,11,7,9,6,1,8,5,2,?,?,?,1043,2,3379,8,6251,1,7715,6,7867,9,8531,{ENTER},
5,11,8,4,2,1,7,6,3,8,?,?,1233,8,3689,3,6913,7,9129,1,11033,2,11377,4,12745,{ENTER},
5,11,9,8,5,6,3,7,9,1,4,?,4611,4,7875,1,11050,9,14586,3,18466,6,23402,5,23618,8,26050,{ENTER},
5,11,10,6,4,5,8,8,7,1,9,3,1139,3,9595,9,12891,1,19363,8,23523,7,36179,5,36275,6,38243,{ENTER},
5,11,11,9,4,8,1,4,?,?,?,?,2129,1,5609,8,6329,4,6465,9,7537,{ENTER},
5,11,12,2,8,7,5,5,9,?,?,?,3166,9,3374,5,9949,7,12821,8,13453,2,14773,{ENTER},
5,11,13,9,3,6,1,6,8,4,?,?,956,4,6236,8,6620,1,9836,6,11324,3,11580,9,12980,{ENTER},
5,11,14,2,5,9,6,7,1,8,3,?,5020,3,5492,8,10516,6,10812,1,16772,9,16900,5,17380,1,26692,{ENTER},
5,11,15,7,3,6,4,8,9,5,8,1,1082,1,1858,8,8186,5,8570,7,11954,3,12178,6,12818,{ENTER},
5,3,1,3,4,6,8,4,?,?,?,?,5586,8,6058,6,7098,4,7490,3,8218,{ENTER},
5,3,2,2,6,9,8,5,7,?,?,?,2545,7,3097,8,3553,9,4009,6,4385,2,4921,{ENTER},
5,3,3,1,4,3,6,6,8,5,?,?,1149,5,1653,8,2109,6,3612,4,3941,3,4660,1,6252,{ENTER},
5,3,4,3,7,4,5,7,8,1,6,?,1059,6,1451,1,1899,8,5395,7,5811,4,6723,3,7475,{ENTER},
5,3,5,1,8,4,3,8,5,2,9,7,2356,7,2716,9,3084,5,3452,2,4724,1,5164,4,6036,{ENTER},
5,3,6,8,5,6,2,4,?,?,?,?,2818,2,3098,6,3306,5,3522,8,4274,{ENTER},
5,3,7,9,6,1,8,5,2,?,?,?,2342,2,2798,8,3222,1,3614,6,3982,9,4694,{ENTER},
5,3,8,4,2,1,7,6,3,8,?,?,2130,8,2586,3,3130,7,4834,2,5106,1,5362,4,6162,{ENTER},
5,3,9,8,5,6,3,7,9,1,4,?,1942,4,2270,1,3534,9,6838,5,7166,6,7606,3,8222,1,9238,{ENTER},
5,3,10,6,4,5,8,8,7,1,9,3,1962,3,2466,9,3018,1,4122,7,4754,8,6434,5,7066,{ENTER},
5,3,11,9,4,8,1,4,?,?,?,?,3277,1,3653,8,3973,4,4301,9,5085,{ENTER},
5,3,12,2,8,7,5,5,9,?,?,?,4658,9,5066,5,5434,7,6122,8,6466,2,8906,{ENTER},
5,3,13,9,3,6,1,6,8,4,?,?,5510,4,5862,1,6350,8,7510,6,7758,3,8102,9,8734,{ENTER},
5,3,14,2,5,9,6,7,1,8,3,?,8075,3,10683,1,11195,8,14251,6,14731,9,15418,5,15915,2,16715,{ENTER},
5,3,15,7,3,6,4,8,9,5,8,1,1873,1,2249,8,2577,9,3425,7,3993,3,4257,6,4849,{ENTER},
5,4,1,3,4,6,8,4,?,?,?,?,481,8,593,6,833,4,1105,3,1873,{ENTER},
5,4,2,2,6,9,8,5,7,?,?,?,365,7,517,8,1437,9,2045,6,2573,2,2973,{ENTER},
5,4,3,1,4,3,6,6,8,5,?,?,1120,5,1376,8,3064,3,3336,6,4336,4,4568,1,5512,{ENTER},
5,4,4,3,7,4,5,7,8,1,6,?,1973,6,3821,1,6805,5,6965,8,7149,7,7301,4,7741,3,8101,{ENTER},
5,4,5,1,8,4,3,8,5,2,9,7,395,7,491,9,1955,2,2179,5,2347,4,2555,3,2739,1,3083,{ENTER},
5,4,6,8,5,6,2,4,?,?,?,?,2089,2,2306,6,2482,5,2642,8,2977,{ENTER},
5,4,7,9,6,1,8,5,2,?,?,?,1171,2,1379,8,1611,1,1819,6,2003,9,2291,{ENTER},
5,4,8,4,2,1,7,6,3,8,?,?,3991,8,4119,7,4439,3,6631,1,6791,2,7423,4,7927,{ENTER},
5,4,9,8,5,6,3,7,9,1,4,?,3282,1,3498,4,3714,9,3962,3,4146,6,4330,5,4490,8,4858,{ENTER},
5,4,10,6,4,5,8,8,7,1,9,3,1122,3,1362,9,1610,1,1842,7,3866,8,4058,5,4522,4,4730,6,5650,{ENTER},
5,4,11,9,4,8,1,4,?,?,?,?,2247,1,2367,8,2495,4,2839,9,3239,{ENTER},
5,4,12,2,8,7,5,5,9,?,?,?,788,9,995,5,1187,7,1371,8,1635,2,2107,{ENTER},
5,4,13,9,3,6,1,6,8,4,?,?,1806,4,2006,8,2206,1,4502,6,4670,3,4814,9,5222,{ENTER},
5,4,14,2,5,9,6,7,1,8,3,?,751,3,999,8,1231,1,1463,6,1671,9,2839,5,2999,2,5679,{ENTER},
5,4,15,7,3,6,4,8,9,5,8,1,2169,1,2393,8,2577,5,2721,9,7497,4,7745,6,7921,3,8129,7,8569,{ENTER},
5,5,1,3,4,6,8,4,?,?,?,?,2262,8,4645,6,6781,4,7109,3,7485,{ENTER},
5,5,2,2,6,9,8,5,7,?,?,?,1916,7,3196,8,4140,9,4876,6,5108,2,5516,{ENTER},
5,5,3,1,4,3,6,6,8,5,?,?,1708,5,2148,8,2748,6,3140,3,3764,1,4172,{ENTER},
5,5,4,3,7,4,5,7,8,1,6,?,792,6,968,1,1352,5,2448,7,4048,8,4248,7,4456,4,5376,{ENTER},
5,5,5,1,8,4,3,8,5,2,9,7,912,7,1576,9,2096,2,2608,5,3592,4,3824,8,4720,1,6664,{ENTER},
5,5,6,8,5,6,2,4,?,?,?,?,7159,2,7775,6,8703,5,8943,8,9279,{ENTER},
5,5,7,9,6,1,8,5,2,?,?,?,1744,2,2288,8,5592,6,6152,1,6440,9,6840,{ENTER},
5,5,8,4,2,1,7,6,3,8,?,?,1106,8,3914,3,4450,7,5602,4,5954,5,6546,{ENTER},
5,5,9,8,5,6,3,7,9,1,4,?,882,4,1090,1,1538,9,1914,3,2474,8,2850,5,3170,6,3578,{ENTER},
5,5,10,6,4,5,8,8,7,1,9,3,1230,3,1534,9,1814,1,2102,6,2398,7,2734,4,4030,8,4335,{ENTER},
5,5,11,9,4,8,1,4,?,?,?,?,5371,1,5627,4,6195,8,6411,9,7147,{ENTER},
5,5,12,2,8,7,5,5,9,?,?,?,5621,9,6133,5,6597,7,6853,8,7173,2,7589,{ENTER},
5,5,13,9,3,6,1,6,8,4,?,?,1145,4,1361,8,3785,6,4041,1,4281,9,4737,{ENTER},
5,5,14,2,5,9,6,7,1,8,3,?,4248,3,4760,8,7824,1,8592,6,12104,9,12463,5,12664,2,13064,{ENTER},
5,5,15,7,3,6,4,8,9,5,8,1,4589,1,5461,9,6229,8,6837,5,8069,1,8469,4,9525,6,9909,{ENTER},
5,6,1,3,4,6,8,4,?,?,?,?,1571,8,2579,6,4451,4,4747,2,5387,{ENTER},
5,6,2,2,6,9,8,5,7,?,?,?,2605,7,4173,9,6621,4,6925,2,7725,{ENTER},
5,6,3,1,4,3,6,6,8,5,?,?,92,5,1036,8,1844,6,2884,3,3212,4,3412,1,3884,{ENTER},
5,6,4,3,7,4,5,7,8,1,6,?,677,6,1197,8,1837,1,2261,7,2853,4,3293,3,3788,{ENTER},
5,6,5,1,8,4,3,8,5,2,9,7,440,7,872,9,1392,2,2128,5,4016,8,5504,4,5736,2,6408,{ENTER},
5,6,6,8,5,6,2,4,?,?,?,?,906,8,1226,5,4170,6,4338,2,4914,{ENTER},
5,6,7,9,6,1,8,5,2,?,?,?,207,2,1319,8,2127,1,2471,6,2695,9,3111,{ENTER},
5,6,8,4,2,1,7,6,3,8,?,?,78,8,422,3,1550,7,2014,1,2342,2,3830,{ENTER},
5,6,9,8,5,6,3,7,9,1,4,?,192,1,2880,9,3552,1,3943,6,4304,3,5103,{ENTER},
5,6,10,6,4,5,8,8,7,1,9,3,688,3,1424,9,2096,1,4520,7,4976,6,5200,5,5744,{ENTER},
5,6,11,9,4,8,1,4,?,?,?,?,1652,1,2188,8,5268,4,5564,9,6124,{ENTER},
5,6,12,2,8,7,5,5,9,?,?,?,1810,9,6450,5,8210,7,8634,8,8938,2,9594,{ENTER},
5,6,13,9,3,6,1,6,8,4,?,?,958,4,1214,8,1558,1,4518,3,4758,6,4950,9,5350,{ENTER},
5,6,14,2,5,9,6,7,1,8,3,?,2401,3,2993,1,6073,6,6281,5,6497,2,7145,{ENTER},
5,6,15,7,3,6,4,8,9,5,8,1,1138,1,1954,8,5338,5,8090,4,8362,9,8698,7,9106,{ENTER},
5,7,1,3,4,6,8,4,?,?,?,?,3388,8,3860,6,4236,4,4404,3,5180,{ENTER},
5,7,2,2,6,9,8,5,7,?,?,?,9375,7,9719,8,10063,9,10423,6,10783,2,11559,{ENTER},
5,7,3,1,4,3,6,6,8,5,?,?,5540,5,6292,8,7148,6,10236,4,10428,3,13452,1,13876,{ENTER},
5,7,4,3,7,4,5,7,8,1,6,?,1734,6,1910,1,5429,3,5765,7,6301,8,6805,5,8141,{ENTER},
5,7,5,1,8,4,3,8,5,2,9,7,2422,7,3686,9,7046,8,22757,5,28845,6,29901,3,30205,1,30869,{ENTER},
5,7,6,8,5,6,2,4,?,?,?,?,3794,2,4210,6,4426,5,4786,8,5394,{ENTER},
5,7,7,9,6,1,8,5,2,?,?,?,3061,2,3517,8,3973,1,4621,6,5085,9,6309,{ENTER},
5,7,8,4,2,1,7,6,3,8,?,?,1339,8,1491,3,9491,7,10179,1,13763,2,13931,4,14707,{ENTER},
5,7,9,8,5,6,3,7,9,1,4,?,3815,4,4606,1,6182,9,7342,3,7750,6,9302,5,9494,8,10166,{ENTER},
5,7,10,6,4,5,8,8,7,1,9,3,1382,3,1542,9,3278,1,3454,7,5470,4,5654,6,9790,5,9990,8,10646,{ENTER},
5,7,11,9,4,8,1,4,?,?,?,?,1135,1,1566,8,2230,4,2830,9,3262,{ENTER},
5,7,12,2,8,7,5,5,9,?,?,?,2924,9,7412,5,7652,7,9268,8,9580,2,10252,{ENTER},
5,7,13,9,3,6,1,6,8,4,?,?,1502,4,1694,8,3334,1,3582,6,6653,3,6933,9,7493,{ENTER},
5,7,14,2,5,9,6,7,1,8,3,?,1095,3,2119,8,2303,1,6919,6,7047,9,15367,5,17831,2,19543,{ENTER},
5,7,15,7,3,6,4,8,9,5,8,1,3382,1,3766,8,7390,5,7566,9,9014,6,9182,4,9686,7,9814,3,10518,{ENTER},
5,8,1,3,4,6,8,4,?,?,?,?,2303,8,4103,6,5631,4,5927,3,6567,{ENTER},
5,8,2,2,6,9,8,5,7,?,?,?,2483,7,4483,8,6203,9,7139,6,7587,2,8338,{ENTER},
5,8,3,1,4,3,6,6,8,5,?,?,2647,5,4807,8,5071,6,8399,3,8607,4,8991,1,12711,{ENTER},
5,8,4,3,7,4,5,7,8,1,6,?,8311,6,18095,4,18575,8,22847,1,23439,7,23695,3,27063,{ENTER},
5,8,5,1,8,4,3,8,5,2,9,7,7126,7,12014,2,12502,9,18966,5,19262,3,24598,4,25118,8,25598,1,27894,{ENTER},
5,8,6,8,5,6,2,4,?,?,?,?,5971,2,7651,6,7898,5,8450,8,9394,{ENTER},
5,8,7,9,6,1,8,5,2,?,?,?,1605,2,5637,8,5901,1,8349,6,8805,9,10421,{ENTER},
5,8,8,4,2,1,7,6,3,8,?,?,2217,8,5417,3,5529,7,8912,1,9064,2,11088,4,11952,{ENTER},
5,8,9,8,5,6,3,7,9,1,4,?,4016,4,8488,1,9728,9,10016,6,15880,1,17352,5,17632,3,18520,8,21312,{ENTER},
5,8,10,6,4,5,8,8,7,1,9,3,3373,7,3621,6,3837,4,4029,3,4205,8,4389,0,5085,{ENTER},
5,8,11,9,4,8,1,4,?,?,?,?,2498,1,6026,8,6442,4,6946,9,8442,{ENTER},
5,8,12,2,8,7,5,5,9,?,?,?,610,9,3250,5,8098,7,11474,8,11578,2,12338,{ENTER},
5,8,13,9,3,6,1,6,8,4,?,?,3641,4,4105,8,4553,1,9625,6,10265,3,10832,9,12576,{ENTER},
5,8,14,2,5,9,6,7,1,8,3,?,3416,3,3592,8,10736,6,10960,1,12840,9,14376,5,14504,2,16632,{ENTER},
5,8,15,7,3,6,4,8,9,5,8,1,1827,1,2779,4,3651,9,4467,7,4851,6,5131,5,5507,{ENTER},
5,9,1,3,4,6,8,4,?,?,?,?,2720,8,3136,6,4752,4,5032,3,5872,{ENTER},
5,9,2,2,6,9,8,5,7,?,?,?,581,7,11165,8,11397,9,12669,6,13093,2,13677,{ENTER},
5,9,3,1,4,3,6,6,8,5,?,?,2567,5,5039,8,14239,3,16935,6,17247,4,17519,1,20719,{ENTER},
5,9,4,3,7,4,5,7,8,1,6,?,1912,6,4992,1,5672,8,10552,3,10928,4,11832,5,12184,3,13136,{ENTER},
5,9,5,1,8,4,3,8,5,2,9,7,3593,7,3961,9,9657,2,10497,5,15240,3,15537,4,16848,8,17264,1,22144,{ENTER},
5,9,6,8,5,6,2,4,?,?,?,?,11547,2,12131,6,12795,5,13283,8,13763,{ENTER},
5,9,7,9,6,1,8,5,2,?,?,?,2809,2,6673,8,7233,1,7881,6,8401,9,9729,{ENTER},
5,9,8,4,2,1,7,6,3,8,?,?,512,8,3256,3,4040,7,4688,1,6816,2,7136,4,8064,{ENTER},
5,9,9,8,5,6,3,7,9,1,4,?,1007,4,5503,3,6023,9,7735,5,8351,8,9655,3,10191,6,14335,{ENTER},
5,9,10,6,4,5,8,8,7,1,9,3,1497,3,2161,9,2721,1,13097,0,13281,0,13417,0,13593,0,14657,{ENTER},
5,9,11,9,4,8,1,4,?,?,?,?,6306,1,6946,8,7698,4,8242,9,8714,{ENTER},
5,9,12,2,8,7,5,5,9,?,?,?,13119,9,13999,8,14575,2,15431,5,15759,7,16303,{ENTER},
5,9,13,9,3,6,1,6,8,4,?,?,5480,4,6088,8,8216,1,8704,6,9888,3,10424,9,12608,{ENTER},
5,9,14,2,5,9,6,7,1,8,3,?,2774,3,4374,8,5062,1,8758,6,9382,9,12062,5,12334,2,13230,{ENTER},
5,9,15,7,3,6,4,8,9,5,8,1,6979,1,7507,8,16675,5,16731,6,21619,4,22147,7,23211,3,23619,9,24067,{ENTER},
6,10,1,3,4,6,8,4,?,?,?,?,3410,8,3962,6,5234,4,5722,3,9497,{ENTER},
6,10,2,2,6,9,8,5,7,?,?,?,2241,7,4377,8,6769,9,7345,6,8665,2,10321,{ENTER},
6,10,3,1,4,3,6,6,8,5,?,?,3262,5,5694,8,6678,6,7822,3,9110,1,9982,4,11174,{ENTER},
6,10,4,3,7,4,5,7,8,1,6,?,1645,6,2605,1,4613,8,4981,5,5333,3,5933,7,6349,{ENTER},
6,10,5,1,8,4,3,8,5,2,9,7,1279,7,1839,9,4143,2,7415,9,7743,8,8071,1,8935,{ENTER},
6,10,6,8,5,6,2,4,?,?,?,?,5996,2,7612,6,8980,5,9276,8,10500,{ENTER},
6,10,7,9,6,1,8,5,2,?,?,?,2849,2,3497,8,7065,6,12921,6,13089,9,15217,{ENTER},
6,10,8,4,2,1,7,6,3,8,?,?,2709,8,2989,3,3261,7,3517,1,3845,4,4309,{ENTER},
6,10,9,8,5,6,3,7,9,1,4,?,1350,4,2030,1,2526,9,3078,6,3934,7,4750,{ENTER},
6,10,10,6,4,5,8,8,7,1,9,3,3740,3,4356,9,5796,7,6436,1,11180,9,12444,4,12988,{ENTER},
6,10,11,9,4,8,1,4,?,?,?,?,3241,1,4617,8,6761,4,6905,9,8121,{ENTER},
6,10,12,2,8,7,5,5,9,?,?,?,3183,9,3375,5,3551,7,8270,8,8398,2,9686,{ENTER},
6,10,13,9,3,6,1,6,8,4,?,?,1975,4,2103,6,3215,1,3383,8,3983,6,5127,{ENTER},
6,10,14,2,5,9,6,7,1,8,3,?,3880,3,4504,5,5448,9,5872,6,6472,8,8152,1,8544,{ENTER},
6,10,15,7,3,6,4,8,9,5,8,1,1380,1,1868,8,2412,9,3564,7,3964,5,5548,6,5748,{ENTER},
6,11,1,3,4,6,8,4,?,?,?,?,1845,8,2501,6,3957,4,4661,3,5413,{ENTER},
6,11,2,2,6,9,8,5,7,?,?,?,669,7,837,8,1589,6,2853,2,3685,{ENTER},
6,11,3,1,4,3,6,6,8,5,?,?,541,5,829,8,1693,6,3589,3,4093,4,4789,1,5717,{ENTER},
6,11,4,3,7,4,5,7,8,1,6,?,1181,1,1613,6,2133,8,2685,5,3829,4,4341,7,5341,3,6109,{ENTER},
6,11,5,1,8,4,3,8,5,2,9,7,1187,7,1771,9,2235,5,4467,6,5027,3,6475,4,9363,6,12531,2,13387,{ENTER},
